aX,aY,aZ,gX,gY,gZ
1.352,0.905,1.066,0.183,-16.846,-28.748
1.460,0.927,1.075,-5.615,-31.921,-42.847
1.631,0.863,1.092,-5.188,-47.913,-63.477
1.795,0.832,1.107,-0.488,-67.871,-84.839
1.920,0.781,1.075,4.211,-91.064,-108.826
2.015,0.686,1.031,11.292,-112.122,-136.780
2.074,0.613,0.982,19.226,-127.380,-168.945
2.071,0.560,0.883,26.123,-131.226,-206.604
2.010,0.517,0.738,31.189,-127.563,-250.916
1.899,0.490,0.506,30.579,-120.972,-295.593
1.747,0.504,0.222,30.640,-115.173,-341.797
1.560,0.617,-0.093,28.076,-105.713,-389.038
1.323,0.790,-0.360,11.719,-93.384,-439.880
1.015,0.968,-0.524,-19.104,-85.571,-490.479
0.559,1.208,-0.561,-54.749,-80.688,-536.255
-0.069,1.428,-0.441,-92.896,-78.369,-564.148
-0.793,1.529,-0.119,-119.507,-76.538,-565.125
-1.372,1.666,0.002,-125.122,-60.974,-523.071
-1.772,1.720,0.144,-116.333,-51.575,-459.106
-1.937,1.861,0.122,-118.652,-57.007,-374.756
-1.946,1.886,0.313,-120.972,-89.600,-286.560
-1.871,1.911,0.468,-120.911,-127.991,-204.407
-1.707,1.868,0.662,-115.173,-150.818,-139.587
-1.519,1.738,0.756,-106.140,-150.818,-96.436
-1.358,1.627,0.844,-97.229,-135.376,-70.862
-1.269,1.457,0.889,-80.383,-114.258,-60.303
-1.201,1.273,0.887,-61.584,-91.858,-55.908
-1.347,1.350,1.171,-52.429,-79.163,-46.753
-1.348,1.182,1.111,-57.068,-84.473,-31.189
-1.143,0.949,1.027,-32.410,-108.032,-6.104
-0.934,0.842,0.790,-9.521,-121.277,28.198
-0.843,0.714,0.671,-4.333,-108.765,36.377
-0.814,0.635,0.675,-10.620,-84.961,28.687
-0.871,0.625,0.726,-18.066,-57.739,24.353
-0.922,0.643,0.777,-21.790,-31.189,29.175
-0.873,0.669,0.797,-16.418,-10.376,37.964
-0.825,0.710,0.827,-6.409,-0.671,47.180
-0.805,0.732,0.790,-2.686,-0.610,54.932
-0.770,0.691,0.768,-2.869,-6.897,60.181
-0.721,0.664,0.767,-1.282,-15.320,67.444
-0.614,0.633,0.823,1.343,-18.188,75.500
-0.473,0.658,0.843,5.737,-9.338,80.383
-0.410,0.610,0.789,10.437,2.869,75.195
-0.358,0.611,0.737,19.165,6.653,66.162
-0.422,0.560,0.694,22.461,6.409,58.411
-0.416,0.539,0.697,24.719,11.169,54.749
-0.412,0.504,0.716,28.442,21.912,55.908
-0.395,0.478,0.745,29.175,35.461,60.364
-0.345,0.481,0.769,30.762,46.692,66.589
-0.276,0.501,0.775,29.663,53.040,72.632
-0.224,0.498,0.788,23.682,51.270,74.829
-0.208,0.479,0.825,16.174,43.274,73.608
-0.192,0.450,0.871,10.986,35.950,71.289
-0.171,0.447,0.889,7.935,32.532,69.885
-0.147,0.450,0.875,3.784,32.043,66.895
-0.145,0.427,0.873,-1.160,30.273,61.523
-0.164,0.423,0.888,-0.183,28.931,56.702
-0.209,0.431,0.895,5.554,30.823,54.993
-0.229,0.441,0.890,12.939,34.424,56.091
-0.253,0.452,0.863,17.212,39.246,59.631
-0.231,0.452,0.828,19.043,40.344,64.392
-0.215,0.461,0.823,19.470,35.706,70.984
-0.213,0.468,0.843,19.165,28.931,77.515
-0.188,0.474,0.852,18.250,23.743,82.581
-0.153,0.484,0.856,15.991,20.203,84.595
-0.152,0.487,0.846,11.230,16.785,82.031
-0.159,0.470,0.851,4.395,15.686,76.660
-0.180,0.438,0.868,3.723,18.066,72.998
-0.196,0.430,0.875,6.165,23.132,72.449
-0.179,0.433,0.867,6.531,29.663,73.486
-0.189,0.438,0.878,7.080,31.982,75.989
-0.197,0.442,0.898,8.179,32.043,79.163
-0.205,0.449,0.918,9.338,32.043,82.092
-0.223,0.437,0.928,9.766,32.349,84.778
-0.226,0.417,0.924,9.949,33.508,87.280
-0.248,0.394,0.916,11.108,36.011,90.820
-0.234,0.375,0.898,14.038,41.016,95.093
-0.195,0.379,0.869,16.541,45.532,98.816
-0.185,0.369,0.848,16.968,46.143,100.098
-0.194,0.355,0.845,17.395,44.800,99.365
-0.196,0.357,0.856,20.508,46.631,99.915
-0.158,0.373,0.843,23.315,54.016,101.501
-0.115,0.392,0.824,21.484,60.547,101.013
-0.122,0.386,0.836,18.738,59.814,96.985
-0.145,0.370,0.862,17.883,56.030,93.140
-0.161,0.350,0.876,16.602,54.260,90.637
-0.171,0.333,0.890,14.771,54.810,89.844
-0.158,0.330,0.902,15.259,55.847,91.309
-0.166,0.308,0.894,17.639,55.664,93.689
-0.140,0.301,0.898,15.869,52.551,96.680
-0.111,0.293,0.889,16.357,46.936,99.182
-0.065,0.296,0.877,16.602,39.856,100.037
-0.042,0.288,0.871,15.076,32.043,97.412
-0.039,0.269,0.870,14.099,26.245,91.370
-0.058,0.265,0.865,14.099,24.841,83.618
-0.106,0.254,0.860,13.184,30.273,75.684
-0.155,0.246,0.862,13.306,41.931,69.153
-0.224,0.231,0.849,14.221,58.533,65.918
-0.247,0.222,0.820,14.465,75.439,68.665
-0.234,0.227,0.770,14.526,88.196,76.538
1.982,0.960,1.254,31.677,-127.686,-151.428
2.000,0.913,1.147,42.236,-125.488,-207.031
1.872,0.775,1.014,45.654,-124.756,-260.254
1.872,0.701,0.876,52.612,-127.258,-303.772
1.793,0.720,0.685,73.853,-131.287,-339.539
1.720,0.833,0.461,88.501,-138.428,-373.779
1.593,1.019,0.197,91.064,-147.522,-415.405
1.356,1.192,-0.086,79.468,-152.771,-468.384
1.019,1.350,-0.314,58.838,-148.071,-523.804
0.623,1.530,-0.425,32.654,-126.709,-568.054
0.105,1.764,-0.357,4.639,-85.327,-596.008
-0.547,1.909,-0.137,-20.813,-38.635,-605.530
-1.118,1.982,0.024,-41.504,-5.310,-580.566
-1.577,2.044,0.041,-62.927,-4.883,-514.526
-1.964,2.112,0.094,-87.708,-54.443,-419.434
-2.197,2.089,0.310,-106.995,-135.498,-316.345
-2.261,1.966,0.614,-109.131,-204.468,-220.520
-2.132,1.803,0.782,-100.403,-232.666,-141.724
-1.908,1.664,0.769,-76.965,-222.351,-88.318
-1.745,1.532,0.686,-44.128,-190.369,-57.861
-1.620,1.390,0.579,-16.052,-148.560,-43.213
-1.575,1.161,0.460,11.719,-108.948,-38.696
-1.482,0.978,0.324,27.710,-73.669,-29.297
-1.414,0.830,0.294,23.010,-53.101,-10.620
-1.302,0.759,0.286,0.061,-45.776,14.099
-1.137,0.683,0.297,-16.479,-39.368,37.109
-1.017,0.619,0.399,-26.001,-49.744,46.753
-0.904,0.595,0.545,-37.476,-61.829,52.429
-0.791,0.578,0.660,-49.866,-60.303,55.237
-0.706,0.576,0.756,-57.983,-48.340,55.176
-0.653,0.579,0.836,-58.289,-34.180,50.720
-0.632,0.591,0.909,-51.941,-19.043,44.006
-0.637,0.607,0.948,-44.006,-0.916,38.757
-0.638,0.611,0.950,-31.372,19.287,35.095
-0.639,0.606,0.923,-16.663,34.668,33.630
-0.653,0.620,0.887,-3.418,42.969,36.682
-0.646,0.595,0.843,2.258,45.166,42.725
-0.608,0.568,0.808,4.089,41.809,52.856
-0.518,0.567,0.779,4.883,33.813,65.552
-0.408,0.581,0.764,4.517,21.851,76.355
-0.335,0.599,0.797,2.380,7.385,81.238
-0.290,0.594,0.868,-0.916,-3.479,79.041
-0.264,0.570,0.924,-4.333,-4.456,72.388
-0.255,0.560,0.967,-2.686,4.822,64.758
-0.276,0.591,0.990,8.789,21.912,58.044
-0.305,0.551,0.977,20.935,40.955,51.331
-0.342,0.542,0.947,26.733,59.631,45.105
-0.363,0.525,0.897,33.569,72.937,45.105
-0.385,0.530,0.842,37.537,78.064,49.377
-0.378,0.520,0.791,36.499,74.951,55.176
-0.327,0.496,0.755,29.663,62.805,62.012
-0.290,0.485,0.753,19.165,41.565,69.580
-0.256,0.469,0.788,8.728,18.921,75.256
-0.220,0.442,0.838,-0.977,0.916,78.369
-0.182,0.431,0.887,-7.751,-8.118,79.407
-0.151,0.433,0.931,-11.536,-7.202,77.209
-0.158,0.434,0.974,-11.902,0.549,70.862
-0.204,0.424,1.001,-10.071,13.245,60.791
-0.247,0.410,0.999,-2.563,29.785,51.453
-0.275,0.412,0.958,6.714,45.105,45.471
-0.318,0.411,0.912,14.343,54.321,42.664
-0.346,0.403,0.874,19.043,55.725,43.091
-0.357,0.386,0.835,19.958,50.720,47.668
-0.356,0.377,0.808,16.846,39.490,55.786
-0.329,0.374,0.802,11.780,25.757,64.575
-0.303,0.367,0.813,5.554,11.963,72.021
-0.289,0.355,0.843,-0.366,2.136,76.355
-0.275,0.355,0.880,-3.479,-0.610,78.186
-0.262,0.350,0.911,-4.028,4.028,77.515
-0.267,0.336,0.927,-2.441,13.184,75.073
-0.289,0.328,0.938,2.136,25.513,71.960
-0.324,0.318,0.932,8.362,39.063,69.763
-0.369,0.294,0.931,16.357,50.903,68.970
-0.402,0.284,0.913,21.423,59.998,71.838
-0.392,0.284,0.874,23.193,65.369,78.125
-0.361,0.295,0.824,21.729,63.904,84.534
-0.326,0.304,0.797,18.738,54.443,89.966
-0.291,0.317,0.788,15.564,40.527,93.140
-0.272,0.321,0.794,10.498,27.344,93.872
-0.267,0.310,0.818,4.578,19.348,93.018
-0.271,0.288,0.843,0.366,19.531,91.064
-0.277,0.269,0.853,-0.793,26.672,89.417
-0.281,0.264,0.858,0.366,37.292,87.708
-0.270,0.272,0.848,2.747,49.011,85.754
-0.261,0.284,0.831,4.761,58.105,82.703
-0.261,0.291,0.821,7.141,62.439,79.285
-0.249,0.297,0.806,9.094,64.575,77.637
-0.236,0.316,0.797,7.874,63.965,76.965
-0.250,0.327,0.807,3.845,60.852,76.843
-0.269,0.314,0.825,-0.793,57.068,78.003
-0.285,0.296,0.844,-3.662,55.115,81.787
-0.276,0.277,0.846,-3.967,55.481,87.646
-0.258,0.284,0.837,-2.014,56.946,93.994
-0.240,0.309,0.819,-0.732,57.678,98.083
-0.196,0.330,0.814,-1.709,58.167,98.938
-0.182,0.340,0.831,-4.456,55.603,96.680
-0.163,0.337,0.860,-7.935,50.781,94.360
-0.140,0.332,0.874,-10.925,46.753,93.018
-0.120,0.320,0.879,-13.123,44.189,93.872
-0.117,0.293,0.900,-13.184,42.725,95.459
-1.396,2.044,-0.688,-18.555,-89.783,-562.988
-1.787,1.970,-0.560,-70.374,-123.047,-493.591
-2.108,1.869,-0.300,-113.342,-174.438,-401.489
-2.292,1.755,0.062,-136.841,-218.079,-304.077
-2.285,1.594,0.396,-138.428,-227.600,-217.896
-2.132,1.463,0.594,-117.676,-200.867,-151.428
-1.936,1.349,0.649,-83.862,-152.466,-106.262
-1.722,1.226,0.590,-51.025,-101.135,-77.332
-1.529,1.121,0.501,-25.330,-58.960,-56.824
-1.351,1.012,0.425,-9.705,-37.415,-41.504
-1.212,0.882,0.423,-2.014,-36.072,-29.907
-1.080,0.802,0.453,-8.057,-39.429,-13.611
-0.970,0.752,0.491,-19.531,-40.039,7.446
-0.842,0.691,0.590,-25.879,-45.959,21.301
-0.768,0.647,0.683,-29.114,-49.927,27.771
-0.718,0.610,0.801,-34.180,-44.983,33.936
-0.674,0.585,0.889,-39.307,-30.457,39.185
-0.631,0.550,0.951,-33.081,-11.169,39.856
-0.598,0.553,0.996,-18.799,2.075,36.133
-0.600,0.565,1.002,-8.057,12.146,31.006
-0.594,0.578,0.961,-6.104,20.874,26.428
-0.578,0.578,0.898,-5.615,25.696,22.766
-0.566,0.570,0.846,-3.174,22.949,20.630
-0.539,0.544,0.806,-2.075,14.893,21.240
-0.478,0.532,0.779,-3.296,6.897,27.588
-0.396,0.527,0.766,-6.592,0.000,36.560
-0.302,0.528,0.789,-10.559,-7.446,43.884
-0.242,0.530,0.845,-13.306,-13.550,47.241
-0.203,0.523,0.911,-10.559,-14.526,46.021
-0.187,0.507,0.970,-1.221,-9.277,40.405
-0.193,0.505,0.990,12.756,1.465,32.593
-0.219,0.506,0.989,29.358,16.296,23.865
-0.262,0.504,0.951,43.640,31.677,15.320
-0.308,0.489,0.882,51.697,43.701,8.545
-0.347,0.474,0.808,50.964,49.011,5.432
-0.378,0.454,0.756,44.556,47.363,7.568
-0.392,0.440,0.721,37.354,40.283,14.038
-0.371,0.448,0.688,29.419,30.212,22.766
-0.324,0.468,0.698,19.348,17.212,30.029
-0.350,0.454,0.686,10.925,3.967,33.875
-0.338,0.450,0.757,3.235,-4.761,36.804
-0.339,0.439,0.824,-0.671,-8.606,38.452
-0.343,0.441,0.873,0.488,-5.920,39.124
-0.350,0.459,0.894,4.700,1.953,39.307
-0.352,0.471,0.890,7.385,11.292,37.415
-0.354,0.467,0.874,9.888,20.752,34.363
-0.365,0.467,0.852,12.390,27.222,31.128
-0.386,0.468,0.833,12.512,30.334,28.748
-0.375,0.472,0.801,8.911,31.616,29.358
-0.391,0.478,0.792,3.967,29.114,30.640
-0.447,0.485,0.805,0.671,24.292,31.860
-0.495,0.471,0.846,-0.488,22.522,34.790
-0.515,0.459,0.860,2.869,24.292,40.527
-0.501,0.465,0.848,8.850,28.076,48.584
-0.484,0.472,0.825,13.489,29.724,55.603
-0.461,0.460,0.814,15.564,27.893,60.608
-0.427,0.450,0.812,15.930,25.452,65.063
-0.392,0.440,0.816,14.954,23.499,68.359
-0.362,0.435,0.820,12.146,21.729,68.542
-0.356,0.430,0.840,8.728,20.813,65.857
-0.364,0.420,0.857,6.470,22.705,61.523
-0.379,0.410,0.862,4.883,28.259,56.152
-0.402,0.402,0.857,4.822,35.461,51.453
-0.431,0.391,0.849,5.920,42.786,48.035
-0.455,0.380,0.849,9.094,48.035,47.363
-0.475,0.381,0.853,12.878,52.368,50.964
-0.493,0.372,0.868,14.648,54.504,58.777
-0.481,0.356,0.874,15.625,54.321,69.031
-0.447,0.355,0.867,16.296,51.025,80.200
-0.414,0.349,0.855,14.343,44.922,88.867
-0.392,0.328,0.852,11.047,37.476,92.468
-0.379,0.319,0.851,8.057,31.799,92.224
-0.372,0.313,0.856,5.432,29.541,88.928
-0.368,0.295,0.851,2.319,31.555,84.595
-0.361,0.286,0.849,0.183,36.865,81.177
-0.353,0.286,0.840,-0.732,43.640,79.956
-0.351,0.289,0.844,-1.038,49.133,79.956
-0.359,0.293,0.852,0.305,52.795,81.055
-0.358,0.306,0.857,2.991,55.847,84.656
-0.356,0.327,0.853,4.822,58.105,89.722
-0.333,0.339,0.836,5.005,59.204,93.567
-0.312,0.355,0.818,4.333,58.411,94.971
-0.294,0.353,0.814,3.540,54.810,93.811
-0.275,0.346,0.814,3.235,50.110,92.834
-0.268,0.338,0.821,2.441,46.204,93.689
-0.246,0.325,0.825,1.648,43.945,96.008
-0.218,0.325,0.828,0.793,43.579,99.304
-0.218,0.327,0.830,-0.366,44.006,101.624
-0.220,0.329,0.831,-2.380,45.837,102.112
-0.234,0.321,0.835,-4.150,50.354,102.722
-0.238,0.308,0.831,-4.028,57.007,105.225
-0.198,0.306,0.816,-2.197,65.552,110.352
-0.113,0.331,0.787,-0.854,71.899,116.089
-0.040,0.359,0.787,-2.014,70.618,118.835
-0.014,0.357,0.822,-5.310,61.157,117.004
-0.008,0.332,0.874,-8.484,50.354,112.732
0.024,0.307,0.918,-9.094,44.250,108.948
-0.029,0.314,0.939,-7.324,42.480,103.638
-0.041,0.321,0.932,-4.211,46.021,101.196
-0.038,0.316,0.901,-1.831,54.688,98.999
-2.227,2.006,0.562,-45.532,-75.928,-336.304
-2.312,1.879,0.667,-55.115,-135.864,-253.723
-2.321,1.694,0.786,-54.443,-179.749,-178.833
-2.220,1.501,0.864,-42.908,-193.176,-117.615
-2.061,1.334,0.815,-27.832,-173.950,-70.862
-1.847,1.161,0.702,-12.878,-132.324,-38.452
-1.637,0.978,0.595,-0.549,-92.468,-17.334
-1.468,0.787,0.519,9.827,-61.462,-6.531
-1.310,0.654,0.445,6.653,-33.508,13.123
-1.137,0.513,0.422,6.287,-18.982,30.273
-0.932,0.415,0.455,2.686,-24.658,42.664
-0.765,0.352,0.507,-7.690,-35.217,55.237
-0.660,0.332,0.571,-28.625,-44.861,66.772
-0.602,0.319,0.664,-52.307,-49.072,73.059
-0.529,0.318,0.755,-72.021,-45.166,74.158
-0.482,0.336,0.841,-81.787,-33.264,70.801
-0.465,0.347,0.907,-79.407,-13.794,64.270
-0.472,0.374,0.952,-69.214,7.507,55.542
-0.488,0.389,0.979,-55.359,26.917,48.950
-0.503,0.384,0.966,-39.368,39.856,42.480
-0.485,0.372,0.917,-22.095,46.692,39.490
-0.451,0.375,0.855,-10.925,44.250,44.556
-0.399,0.359,0.817,-6.470,33.020,54.688
-0.326,0.334,0.801,-5.798,18.494,65.918
-0.238,0.323,0.807,-7.080,3.052,75.195
-0.158,0.321,0.839,-9.033,-10.193,79.956
-0.111,0.306,0.893,-10.132,-19.409,78.003
-0.102,0.283,0.935,-9.766,-22.400,69.275
-0.098,0.277,0.978,-3.418,-14.893,57.251
-0.112,0.280,0.986,5.676,1.099,44.250
-0.129,0.280,0.956,13.123,20.508,30.579
-0.154,0.279,0.907,19.958,38.330,18.860
-0.173,0.305,0.858,24.719,51.208,11.414
-0.201,0.314,0.823,24.719,56.213,6.958
-0.237,0.318,0.801,21.973,53.711,4.761
-0.276,0.331,0.794,18.860,45.471,6.470
-0.319,0.356,0.810,16.846,36.194,11.414
-0.347,0.370,0.823,12.756,27.771,17.944
-0.343,0.370,0.831,6.348,20.508,24.780
-0.341,0.383,0.849,2.014,13.428,31.311
-0.325,0.402,0.847,-1.709,8.789,37.170
-0.309,0.400,0.857,-7.141,5.432,39.978
-0.304,0.404,0.881,-9.399,5.127,41.687
-0.326,0.409,0.909,-9.216,8.789,42.542
-0.355,0.406,0.928,-7.629,15.869,42.908
-0.381,0.399,0.938,-5.005,25.085,42.664
-0.413,0.398,0.926,-1.038,32.959,42.725
-0.440,0.398,0.898,2.380,37.231,43.152
-0.453,0.393,0.861,4.150,38.025,43.640
-0.444,0.383,0.825,3.479,36.377,45.898
-0.417,0.384,0.813,0.244,31.494,50.049
-0.401,0.379,0.823,-5.615,23.499,54.749
-0.388,0.362,0.861,-11.780,15.991,59.204
-0.370,0.348,0.896,-15.564,11.902,64.209
-0.354,0.348,0.932,-17.395,10.864,67.871
-0.359,0.348,0.972,-17.395,12.085,69.519
-0.364,0.348,1.000,-13.794,17.090,70.068
-0.356,0.353,0.999,-7.629,25.452,69.702
-0.346,0.359,0.982,-1.343,33.630,67.810
-0.358,0.368,0.963,3.052,39.246,65.125
-0.379,0.355,0.951,6.226,42.664,62.256
-0.377,0.317,0.938,6.714,45.593,61.829
-0.393,0.293,0.920,7.385,47.791,65.430
-0.414,0.288,0.894,8.850,48.340,70.007
-0.432,0.288,0.859,10.071,48.706,74.280
-0.436,0.273,0.812,9.766,49.377,77.942
-0.432,0.252,0.770,7.446,50.415,82.703
-0.424,0.249,0.754,5.066,52.063,89.722
-0.409,0.264,0.747,2.563,55.176,98.389
-0.336,0.283,0.736,-1.831,58.533,106.506
-0.239,0.299,0.737,-7.935,58.411,111.572
-0.173,0.305,0.777,-14.282,51.086,111.877
-0.139,0.296,0.840,-19.470,38.696,107.483
-0.135,0.292,0.914,-20.996,28.564,100.586
-0.141,0.283,0.965,-19.531,25.269,93.262
-0.144,0.269,0.988,-15.503,29.602,86.243
-0.163,0.270,0.982,-10.315,38.269,80.017
-0.185,0.271,0.958,-5.127,47.241,74.890
-0.206,0.284,0.928,-1.648,54.321,71.167
-0.214,0.276,0.894,-1.404,59.143,69.702
-0.212,0.262,0.874,-3.174,60.547,73.792
-0.184,0.278,0.858,-4.578,59.448,81.909
-0.137,0.307,0.852,-8.301,55.054,87.524
-0.092,0.326,0.874,-13.184,47.363,90.393
-0.058,0.339,0.915,-17.639,39.490,90.210
-0.034,0.340,0.968,-20.935,34.302,86.792
-0.034,0.342,1.015,-20.569,33.691,81.299
-0.053,0.343,1.047,-16.418,37.537,74.951
-0.068,0.340,1.057,-8.911,45.349,69.458
-0.085,0.338,1.037,-0.122,54.932,65.491
-0.103,0.337,1.001,7.690,62.073,62.866
-0.119,0.336,0.953,13.123,65.186,62.012
-0.132,0.335,0.902,15.076,64.026,64.026
-0.148,0.333,0.867,13.489,60.242,69.763
-0.140,0.316,0.848,9.033,56.091,77.087
-0.086,0.299,0.835,3.113,53.284,84.351
0.010,0.299,0.830,-1.648,50.415,93.384
0.088,0.314,0.854,-5.432,44.067,99.121
0.121,0.305,0.908,-9.277,33.997,97.473
0.143,0.294,0.958,-10.010,26.306,91.736
-1.731,1.376,0.714,-56.519,-148.132,-124.084
-1.646,1.280,0.729,-47.058,-134.338,-89.844
-1.563,1.148,0.733,-35.828,-114.685,-67.261
-1.500,1.019,0.713,-24.719,-91.187,-51.392
-1.469,0.906,0.665,-16.968,-66.284,-36.377
-1.407,0.769,0.629,-9.277,-48.218,-23.437
-1.292,0.624,0.604,-4.395,-45.959,-13.245
-1.157,0.508,0.603,-8.484,-51.331,2.014
-1.047,0.418,0.609,-21.790,-61.096,22.156
-0.917,0.359,0.631,-40.833,-68.909,41.931
-0.778,0.322,0.670,-55.786,-71.289,56.152
-0.671,0.324,0.727,-63.843,-67.505,66.162
-0.609,0.363,0.810,-63.171,-56.702,69.702
-0.575,0.391,0.888,-56.885,-40.283,65.063
-0.565,0.410,0.952,-45.166,-18.616,56.519
-0.545,0.425,0.970,-28.015,5.188,47.607
-0.505,0.443,0.940,-11.353,26.855,40.283
-0.455,0.450,0.868,-1.831,38.269,37.109
-0.375,0.414,0.816,-0.366,35.706,37.842
-0.310,0.407,0.801,-1.038,21.667,41.748
-0.260,0.398,0.815,-2.808,2.441,45.288
-0.216,0.374,0.850,-6.653,-13.245,46.692
-0.166,0.375,0.892,-9.033,-21.118,46.631
-0.160,0.370,0.929,-8.118,-21.545,42.053
-0.164,0.353,0.956,-2.747,-13.367,33.142
-0.187,0.338,0.956,5.798,1.770,23.499
-0.226,0.341,0.921,15.686,20.203,15.503
-0.244,0.337,0.861,23.560,35.889,9.827
-0.251,0.337,0.792,24.841,42.480,6.531
-0.267,0.356,0.741,21.362,41.138,6.531
-0.302,0.354,0.733,13.916,34.607,8.362
-0.341,0.352,0.764,7.263,26.611,13.245
-0.361,0.370,0.799,3.784,21.179,20.569
-0.372,0.394,0.822,2.197,18.555,27.710
-0.365,0.403,0.826,0.793,18.433,33.447
-0.361,0.412,0.827,0.183,18.982,38.269
-0.367,0.429,0.835,0.488,19.409,42.053
-0.384,0.432,0.846,0.061,20.935,44.800
-0.407,0.427,0.853,-0.122,23.193,47.546
-0.423,0.420,0.857,1.343,26.978,51.025
-0.432,0.420,0.856,4.272,31.616,55.542
-0.436,0.441,0.850,7.812,35.950,60.913
-0.460,0.452,0.839,11.353,38.574,64.148
-0.471,0.447,0.840,9.521,40.649,66.895
-0.500,0.425,0.859,3.906,42.908,73.425
-0.514,0.401,0.874,1.343,47.058,84.290
-0.511,0.394,0.879,2.686,52.734,97.229
-0.448,0.401,0.857,5.310,57.373,110.291
-0.352,0.415,0.835,6.470,56.824,118.713
-0.318,0.420,0.846,4.395,48.035,119.873
-0.313,0.424,0.883,2.258,36.987,114.746
-0.303,0.402,0.913,0.061,29.602,104.736
-0.337,0.372,0.956,-0.244,26.855,93.567
-0.402,0.345,0.991,4.089,30.884,86.426
-0.431,0.327,0.984,11.597,42.603,84.534
-0.431,0.323,0.940,17.761,56.641,86.670
-0.415,0.318,0.878,20.752,66.223,91.125
-0.383,0.289,0.833,19.836,69.153,96.680
-0.336,0.258,0.808,16.479,66.711,104.431
-0.298,0.255,0.813,12.085,60.120,114.197
-0.261,0.268,0.841,5.920,51.819,122.131
-0.236,0.266,0.894,-1.770,43.701,126.404
-0.211,0.246,0.934,-7.080,38.757,127.197
-0.185,0.252,0.953,-7.812,37.476,124.146
-0.190,0.264,0.960,-6.714,38.147,116.089
-0.224,0.266,0.963,-4.639,40.344,104.187
-0.262,0.263,0.949,-1.526,46.082,92.773
-0.280,0.276,0.912,2.136,55.054,84.106
-0.284,0.283,0.873,3.906,64.636,78.552
-0.284,0.285,0.838,3.540,70.068,78.064
-0.273,0.285,0.816,0.366,70.251,81.421
-0.260,0.287,0.812,-5.493,65.063,87.341
-0.254,0.284,0.831,-13.428,56.580,95.032
-0.227,0.274,0.852,-20.447,47.913,103.394
-0.195,0.277,0.890,-24.170,40.833,110.229
-0.183,0.279,0.942,-24.170,35.339,114.441
-0.164,0.301,0.965,-20.264,34.668,117.188
-0.138,0.326,0.959,-16.357,38.086,117.615
-0.126,0.324,0.959,-15.442,43.701,115.417
-0.117,0.317,0.958,-16.052,47.058,110.229
-0.116,0.298,0.945,-15.930,51.514,107.910
-0.118,0.280,0.915,-17.273,55.969,108.887
-0.112,0.275,0.876,-16.968,58.716,111.389
-0.101,0.292,0.828,-16.785,59.204,115.295
-0.070,0.310,0.791,-20.142,58.533,119.934
-0.010,0.311,0.782,-26.367,56.396,122.437
0.086,0.326,0.818,-30.823,52.795,119.202
0.132,0.346,0.885,-32.532,44.739,108.704
0.122,0.337,0.952,-30.334,34.851,92.468
0.099,0.335,0.995,-24.536,31.189,78.003
0.062,0.343,1.007,-16.907,35.156,68.604
0.039,0.343,0.987,-9.094,43.091,61.951
0.026,0.341,0.936,-4.028,50.476,57.190
0.005,0.354,0.900,-2.136,53.040,55.054
-0.017,0.356,0.872,-3.174,50.781,56.763
-0.019,0.352,0.848,-6.409,46.509,60.730
-0.012,0.353,0.843,-9.094,41.565,65.613
0.016,0.356,0.855,-10.681,36.438,70.862
0.073,0.360,0.877,-11.780,31.921,73.608
0.090,0.365,0.909,-11.780,26.428,69.641
-1.756,1.406,0.511,-42.908,-132.996,-164.368
-1.656,1.362,0.427,-29.663,-117.188,-125.671
-1.561,1.251,0.375,-20.569,-104.126,-102.417
-1.507,1.098,0.359,-26.367,-99.548,-81.909
-1.412,0.961,0.404,-33.325,-94.727,-61.401
-1.366,0.867,0.432,-36.133,-79.468,-36.926
-1.284,0.791,0.455,-30.457,-59.448,-17.578
-1.193,0.723,0.486,-28.076,-44.495,-5.188
-1.102,0.667,0.518,-29.541,-30.945,6.531
-1.020,0.617,0.551,-33.325,-20.752,17.334
-0.954,0.586,0.599,-35.767,-13.733,25.024
-0.883,0.562,0.653,-35.095,-8.606,30.334
-0.809,0.529,0.690,-33.813,-4.333,34.790
-0.741,0.523,0.729,-31.921,-5.127,39.185
-0.692,0.507,0.768,-28.076,-5.432,41.809
-0.643,0.510,0.797,-23.071,-3.845,44.434
-0.613,0.537,0.823,-17.517,-1.282,46.204
-0.589,0.552,0.844,-12.024,4.395,45.776
-0.565,0.555,0.833,-8.057,14.526,43.762
-0.541,0.551,0.820,-5.249,24.963,41.870
-0.528,0.555,0.821,0.366,33.142,41.687
-0.503,0.544,0.812,6.226,38.818,42.969
-0.444,0.527,0.795,7.141,40.771,46.692
-0.405,0.499,0.800,4.150,35.278,51.880
-0.367,0.486,0.823,2.197,25.330,57.495
-0.344,0.474,0.851,2.686,16.052,62.378
-0.327,0.462,0.889,5.676,10.864,65.979
-0.310,0.461,0.908,9.277,10.376,67.322
-0.312,0.482,0.916,12.573,13.733,65.796
-0.352,0.496,0.924,14.038,20.569,61.401
-0.391,0.486,0.914,16.724,31.250,55.664
-0.417,0.471,0.866,20.935,43.579,48.950
-0.442,0.483,0.816,20.874,53.528,48.340
-0.461,0.490,0.778,19.836,58.838,51.025
-0.455,0.490,0.737,16.541,57.373,55.908
-0.454,0.474,0.727,12.024,47.546,61.829
-0.456,0.467,0.733,7.568,33.264,70.251
-0.436,0.462,0.769,2.502,19.226,80.383
-0.427,0.462,0.800,-0.427,9.155,88.562
-0.419,0.454,0.823,-0.061,6.104,93.018
-0.422,0.446,0.845,1.770,8.057,94.666
-0.424,0.430,0.856,5.615,16.907,94.360
-0.430,0.414,0.852,9.949,30.640,93.445
-0.441,0.410,0.843,14.526,46.753,92.896
-0.432,0.412,0.826,17.700,62.073,92.773
-0.384,0.417,0.787,18.250,72.388,92.957
-0.340,0.403,0.763,14.709,72.998,93.689
-0.321,0.390,0.768,9.888,63.782,95.398
-0.331,0.377,0.813,5.188,49.011,97.534
-0.331,0.359,0.864,2.502,35.522,100.281
-0.327,0.345,0.896,1.770,27.771,103.577
-0.315,0.335,0.917,1.709,25.146,105.713
-0.274,0.314,0.915,1.526,26.184,105.774
-0.241,0.309,0.902,2.808,28.809,103.821
-0.220,0.298,0.889,3.784,31.311,98.755
-0.202,0.277,0.890,3.967,34.119,92.041
-0.193,0.265,0.890,3.845,37.842,86.487
-0.186,0.255,0.881,2.380,42.664,82.520
-0.180,0.243,0.880,0.244,46.753,79.102
-0.190,0.233,0.881,-0.549,49.316,76.050
-0.228,0.241,0.898,0.916,51.025,74.219
-0.263,0.246,0.901,2.502,53.040,73.730
-0.264,0.241,0.878,2.319,55.542,73.792
-0.232,0.231,0.846,0.671,55.847,73.364
-0.217,0.225,0.831,0.122,51.819,73.608
-0.219,0.230,0.826,0.427,44.861,74.463
-0.218,0.224,0.832,-0.122,37.964,75.439
-0.205,0.219,0.844,-1.465,34.485,77.148
-0.179,0.228,0.855,-2.258,33.447,79.529
-0.156,0.233,0.860,-3.174,34.180,81.360
-0.151,0.237,0.872,-5.005,35.645,81.238
-0.155,0.233,0.884,-6.531,37.659,80.139
-0.150,0.233,0.889,-6.409,41.321,79.041
-0.143,0.235,0.906,-4.883,45.044,77.698
-0.150,0.258,0.920,-2.808,47.668,73.853
-0.141,0.258,0.932,-2.075,51.392,72.815
-0.142,0.251,0.946,-1.404,52.917,73.608
-0.131,0.257,0.944,0.366,52.185,72.693
-0.113,0.261,0.923,1.526,50.964,72.754
-0.100,0.266,0.908,0.000,48.828,74.524
-0.081,0.245,0.917,-2.380,44.800,76.172
-0.068,0.249,0.917,-4.150,39.001,76.294
-0.072,0.238,0.913,-5.188,34.973,75.684
-0.082,0.229,0.938,-6.531,33.020,74.097
-0.082,0.216,0.950,-5.493,33.203,73.547
-0.060,0.208,0.942,-1.587,36.499,72.937
-0.029,0.216,0.928,0.732,39.063,73.059
0.016,0.217,0.921,-0.244,37.537,71.045
0.025,0.226,0.932,-6.897,31.189,70.679
0.021,0.220,0.956,-8.972,25.085,67.932
0.019,0.214,0.966,-7.568,22.827,63.538
-0.003,0.228,0.978,-5.188,24.292,59.631
-0.033,0.226,0.976,-4.150,28.198,55.420
-0.040,0.204,0.956,-3.906,32.959,50.598
-0.062,0.185,0.934,-1.770,36.743,46.692
-0.085,0.189,0.913,1.465,39.307,46.082
-0.100,0.204,0.887,3.052,41.199,48.096
-0.097,0.205,0.869,2.197,42.053,51.208
-0.067,0.208,0.874,0.244,41.382,54.504
-0.023,0.232,0.877,-2.625,37.903,57.129
-1.320,1.590,0.442,-23.987,-73.120,-396.545
-1.566,1.517,0.484,-34.241,-100.525,-342.468
-1.707,1.466,0.523,-40.527,-130.005,-277.649
-1.740,1.395,0.564,-42.175,-157.349,-213.806
-1.696,1.309,0.559,-39.185,-176.880,-159.363
-1.591,1.262,0.530,-33.813,-183.594,-117.676
-1.508,1.170,0.491,-24.231,-174.866,-92.346
-1.452,1.042,0.452,-18.616,-153.748,-79.529
-1.427,0.902,0.438,-14.404,-125.244,-69.946
-1.442,0.791,0.409,-10.681,-90.027,-57.251
-1.414,0.699,0.373,-5.249,-50.232,-38.940
-1.336,0.625,0.359,-0.366,-26.672,-25.757
-1.245,0.548,0.401,-4.456,-22.583,-12.939
-1.165,0.476,0.470,-17.151,-27.466,4.700
-1.052,0.445,0.551,-30.518,-31.738,23.010
-0.952,0.436,0.641,-41.748,-33.020,37.415
-0.865,0.435,0.735,-46.448,-29.358,46.570
-0.799,0.436,0.801,-47.852,-20.874,49.927
-0.751,0.427,0.843,-45.349,-8.484,49.255
-0.712,0.423,0.849,-39.490,5.005,45.959
-0.680,0.424,0.843,-32.532,17.639,42.297
-0.656,0.419,0.819,-24.170,26.245,39.795
-0.620,0.407,0.789,-18.433,30.151,39.917
-0.553,0.388,0.758,-16.174,29.785,43.945
-0.490,0.384,0.750,-17.517,23.987,50.293
-0.432,0.378,0.773,-20.874,14.648,56.763
-0.376,0.365,0.816,-24.170,6.714,61.890
-0.327,0.356,0.862,-24.841,2.991,64.575
-0.294,0.368,0.903,-21.851,3.479,64.392
-0.275,0.372,0.936,-16.479,8.362,60.913
-0.296,0.391,0.964,-8.362,17.578,54.810
-0.340,0.404,0.980,-0.427,30.518,46.692
-0.377,0.385,0.956,3.784,44.739,39.001
-0.399,0.397,0.915,8.057,57.800,35.950
-0.414,0.424,0.865,12.756,65.674,37.170
-0.418,0.439,0.811,12.268,66.162,39.246
-0.410,0.424,0.778,8.301,57.861,42.969
-0.390,0.403,0.775,4.883,44.128,47.729
-0.369,0.405,0.801,-2.869,28.442,57.129
-0.354,0.401,0.840,-11.963,15.259,65.369
-0.340,0.396,0.883,-18.066,8.118,70.801
-0.340,0.389,0.922,-18.799,8.179,73.669
-0.350,0.381,0.946,-15.503,13.794,73.486
-0.361,0.381,0.965,-8.606,23.254,72.510
-0.407,0.403,0.965,-0.122,35.400,70.496
-0.422,0.407,0.936,8.728,49.072,67.627
-0.417,0.393,0.895,13.916,59.021,65.857
-0.401,0.380,0.848,17.395,63.171,67.505
-0.350,0.371,0.803,16.846,59.448,72.388
-0.302,0.359,0.781,11.108,47.058,78.369
-0.263,0.342,0.796,2.502,28.625,84.045
-0.229,0.330,0.845,-6.042,10.010,87.769
-0.196,0.315,0.904,-12.695,-2.258,88.989
-0.183,0.306,0.962,-16.174,-6.531,87.280
-0.179,0.297,0.999,-15.869,-2.808,81.421
-0.193,0.286,1.018,-12.146,7.202,72.510
-0.223,0.278,1.016,-5.859,21.240,62.500
-0.261,0.265,0.998,2.075,36.804,53.589
-0.296,0.263,0.960,11.169,50.964,47.974
-0.337,0.263,0.918,18.799,60.364,46.021
-0.367,0.247,0.869,22.705,63.904,47.363
-0.377,0.238,0.834,23.132,62.195,52.490
-0.375,0.212,0.811,20.996,56.091,61.035
-0.322,0.218,0.777,17.273,47.974,72.449
-0.251,0.230,0.763,10.681,37.415,82.520
-0.204,0.240,0.773,1.648,23.926,86.853
-0.177,0.225,0.822,-6.714,10.254,86.243
-0.174,0.223,0.886,-10.620,2.197,82.886
-0.194,0.236,0.933,-9.460,3.174,77.515
-0.217,0.231,0.943,-6.653,13.184,69.763
-0.248,0.236,0.932,-1.892,28.259,61.462
-0.292,0.247,0.921,4.639,44.434,54.749
-0.328,0.256,0.887,9.338,59.143,51.697
-0.322,0.250,0.849,10.681,69.641,52.429
-0.305,0.221,0.838,8.484,72.571,58.533
-0.253,0.233,0.829,6.348,68.542,69.946
-0.201,0.252,0.829,1.465,58.899,82.031
-0.138,0.263,0.846,-5.981,43.701,88.745
-0.113,0.262,0.888,-13.123,25.635,89.844
-0.126,0.245,0.948,-18.005,9.460,86.731
-0.157,0.251,1.003,-18.066,1.953,80.994
-0.188,0.245,1.029,-14.648,6.470,75.195
-0.178,0.240,1.015,-9.583,19.592,70.007
-0.183,0.248,1.000,-4.822,34.363,66.467
-0.197,0.236,0.981,-0.366,46.326,66.833
-0.199,0.214,0.956,2.197,54.810,69.519
-0.200,0.196,0.943,3.540,58.716,73.303
-0.207,0.196,0.940,4.395,58.167,78.491
-0.198,0.207,0.937,4.456,55.481,86.670
-0.177,0.252,0.906,2.258,52.063,94.910
-0.102,0.276,0.891,-2.625,50.964,103.271
-0.066,0.279,0.903,-9.094,43.945,101.563
-0.067,0.261,0.934,-11.658,33.447,96.191
-0.052,0.249,0.980,-11.963,28.381,90.881
-0.053,0.248,1.018,-8.301,29.114,88.196
-0.062,0.256,1.040,-3.174,33.630,88.074
-0.058,0.250,1.029,-0.244,39.551,87.097
-0.052,0.222,1.004,1.587,44.678,85.388
-0.045,0.190,0.980,4.395,48.340,85.266
-0.040,0.182,0.953,8.606,49.988,86.975
-1.656,1.710,0.705,-51.453,-109.131,-291.321
-1.618,1.653,0.654,-49.500,-155.151,-224.792
-1.609,1.604,0.587,-44.983,-194.580,-172.668
-1.566,1.531,0.508,-37.781,-210.815,-136.902
-1.499,1.417,0.468,-32.227,-197.388,-114.075
-1.542,1.275,0.417,-17.700,-161.255,-99.792
-1.561,1.154,0.357,-1.221,-110.413,-88.989
-1.569,1.013,0.351,4.456,-66.650,-75.317
-1.585,0.928,0.355,-6.775,-32.715,-55.298
-1.554,0.806,0.383,-16.296,-9.521,-31.860
-1.474,0.705,0.452,-21.240,-11.353,-10.498
-1.357,0.607,0.532,-19.043,-22.766,8.728
-1.234,0.543,0.597,-19.043,-32.837,26.367
-1.129,0.504,0.644,-24.170,-38.574,41.382
-1.019,0.476,0.677,-27.710,-36.682,51.880
-0.928,0.447,0.703,-30.945,-29.114,56.213
-0.871,0.426,0.739,-32.043,-18.311,57.312
-0.798,0.418,0.774,-29.297,-3.479,58.655
-0.752,0.421,0.805,-24.658,12.268,60.181
-0.711,0.433,0.833,-21.667,24.109,62.317
-0.620,0.433,0.848,-19.653,33.813,63.965
-0.546,0.436,0.850,-15.076,36.072,65.979
-0.469,0.418,0.867,-10.315,28.320,67.688
-0.422,0.391,0.893,-8.301,13.245,67.993
-0.386,0.373,0.938,-7.446,-0.305,70.251
-0.359,0.373,0.968,-3.296,-7.751,71.472
-0.342,0.380,0.980,2.441,-7.629,69.702
-0.338,0.385,0.970,8.240,-0.671,64.087
-0.356,0.368,0.952,13.916,11.353,56.274
-0.396,0.351,0.930,20.447,25.391,49.438
-0.444,0.332,0.898,27.222,38.635,46.387
-0.470,0.314,0.849,31.799,49.072,48.096
-0.460,0.309,0.808,32.837,54.626,54.871
-0.415,0.342,0.762,30.640,53.650,64.087
-0.367,0.350,0.753,22.522,44.861,70.496
-0.325,0.321,0.784,12.024,29.358,72.327
-0.322,0.304,0.840,4.761,12.695,72.937
-0.321,0.307,0.893,1.892,1.648,72.815
-0.322,0.300,0.925,-0.610,-0.732,70.923
-0.331,0.287,0.937,-0.366,4.761,67.688
-0.363,0.288,0.930,2.686,15.503,63.416
-0.409,0.278,0.906,6.470,28.564,59.021
-0.460,0.264,0.877,11.230,41.382,56.763
-0.497,0.253,0.842,15.625,52.307,59.082
-0.508,0.240,0.820,17.944,60.059,66.711
-0.495,0.236,0.799,18.494,63.721,78.430
-0.463,0.252,0.776,15.747,62.744,90.637
-0.428,0.270,0.772,9.827,57.129,101.074
-0.326,0.271,0.762,3.601,48.035,108.582
-0.269,0.266,0.776,-0.061,33.630,107.544
-0.254,0.256,0.813,-6.958,16.357,104.553
-0.253,0.252,0.867,-12.329,3.662,100.098
-0.245,0.249,0.911,-14.954,1.099,94.727
-0.245,0.239,0.936,-14.160,8.118,88.989
-0.265,0.240,0.948,-10.559,20.569,83.435
-0.291,0.238,0.930,-6.958,34.668,78.369
-0.323,0.211,0.904,-4.150,47.546,74.585
-0.354,0.194,0.872,-2.014,57.495,72.876
-0.381,0.182,0.825,-0.122,63.293,73.669
-0.358,0.165,0.792,-0.549,65.369,77.271
-0.264,0.150,0.777,-3.845,63.354,83.435
-0.190,0.163,0.785,-7.690,54.260,90.515
-0.147,0.192,0.824,-12.268,39.307,94.421
-0.131,0.178,0.882,-18.433,23.987,92.957
-0.128,0.164,0.953,-21.545,14.648,89.417
-0.140,0.177,0.991,-20.508,13.062,83.435
-0.171,0.196,1.003,-16.968,18.677,74.890
-0.208,0.192,0.986,-14.465,28.931,65.735
-0.238,0.192,0.964,-12.146,41.199,57.495
-0.244,0.179,0.939,-11.475,51.270,53.162
-0.241,0.163,0.913,-11.536,57.739,55.969
-0.232,0.161,0.893,-11.597,58.533,63.416
-0.223,0.163,0.886,-13.245,52.979,71.411
-0.208,0.160,0.894,-15.076,45.288,79.590
-0.191,0.173,0.907,-16.296,38.757,88.257
-0.167,0.198,0.926,-16.846,34.607,94.482
-0.141,0.223,0.947,-16.602,33.569,95.703
-0.117,0.248,0.963,-15.442,35.522,91.675
-0.114,0.264,0.976,-14.587,38.147,84.656
-0.135,0.271,0.978,-13.550,40.710,75.684
-0.161,0.262,0.967,-12.817,42.847,67.078
-0.187,0.235,0.952,-11.719,45.166,62.256
-0.150,0.221,0.926,-9.888,48.340,63.171
-0.219,0.218,0.912,-9.155,50.537,67.566
-0.205,0.214,0.885,-11.230,50.049,75.989
-0.182,0.185,0.890,-13.977,48.828,84.595
-0.164,0.176,0.911,-15.198,45.471,92.651
-0.122,0.207,0.932,-14.709,42.969,100.952
-0.054,0.244,0.941,-14.526,40.833,105.774
0.020,0.261,0.953,-15.442,36.926,102.417
0.026,0.263,0.981,-15.198,30.212,91.003
-0.008,0.250,0.990,-12.451,23.743,75.439
-0.038,0.237,0.989,-9.155,22.644,61.584
-0.051,0.219,0.969,-7.446,27.710,52.795
-0.061,0.207,0.939,-7.446,36.133,51.758
-0.055,0.190,0.924,-9.766,42.908,54.810
-0.043,0.175,0.928,-11.597,44.434,58.350
-0.041,0.169,0.933,-11.414,42.297,62.378
-0.035,0.173,0.939,-10.315,38.635,66.833
-0.020,0.193,0.952,-8.728,34.790,69.885
-1.510,1.698,0.471,-34.119,-89.783,-416.199
-1.765,1.565,0.539,-48.157,-135.742,-348.450
-1.891,1.442,0.611,-52.795,-180.725,-272.339
-1.856,1.346,0.630,-46.692,-208.008,-199.646
-1.725,1.280,0.609,-35.217,-209.106,-141.785
-1.592,1.213,0.559,-24.231,-188.660,-104.370
-1.485,1.089,0.523,-16.113,-154.907,-85.815
-1.450,0.940,0.493,-6.348,-116.699,-79.407
-1.409,0.825,0.464,4.822,-75.012,-76.355
-1.434,0.748,0.462,5.127,-44.067,-64.514
-1.387,0.656,0.468,2.808,-15.259,-47.363
-1.288,0.565,0.481,2.136,-7.019,-32.410
-1.162,0.514,0.523,-4.700,-16.418,-14.771
-1.079,0.492,0.598,-18.005,-32.959,4.761
-1.006,0.451,0.669,-32.288,-45.349,20.813
-0.944,0.425,0.739,-37.964,-48.035,32.104
-0.876,0.451,0.799,-34.912,-42.664,39.978
-0.828,0.462,0.828,-30.579,-32.410,40.100
-0.792,0.453,0.828,-25.085,-15.564,36.377
-0.762,0.444,0.807,-17.578,0.122,33.936
-0.728,0.450,0.773,-9.705,11.963,33.875
-0.687,0.433,0.754,-4.578,16.968,36.377
-0.608,0.426,0.732,-2.686,15.381,42.603
-0.553,0.416,0.733,-3.296,6.409,51.025
-0.498,0.399,0.748,-4.761,-6.287,56.885
-0.447,0.382,0.781,-6.775,-14.587,60.303
-0.406,0.372,0.814,-7.080,-15.869,61.401
-0.361,0.363,0.835,-6.470,-10.315,59.753
-0.331,0.362,0.857,-4.395,-1.404,55.908
-0.336,0.362,0.875,-1.465,8.179,50.110
-0.358,0.360,0.880,0.916,17.761,44.495
-0.387,0.345,0.877,3.113,26.245,40.100
-0.408,0.345,0.859,6.165,32.532,38.635
-0.429,0.345,0.829,8.240,36.133,39.551
-0.444,0.351,0.797,7.324,36.072,42.725
-0.443,0.360,0.781,4.456,33.203,47.180
-0.438,0.366,0.786,1.221,28.442,52.002
-0.437,0.371,0.804,-1.709,22.949,56.824
-0.432,0.394,0.826,-2.869,18.982,61.462
-0.413,0.387,0.845,-2.014,18.494,64.636
-0.382,0.378,0.856,-2.075,20.203,65.491
-0.370,0.384,0.866,-4.883,22.644,67.688
-0.379,0.381,0.877,-5.676,24.719,68.909
-0.401,0.384,0.905,-3.967,27.771,70.496
-0.438,0.370,0.936,1.099,31.311,72.388
-0.450,0.349,0.936,7.141,35.095,76.050
-0.452,0.322,0.927,13.733,40.222,80.627
-0.438,0.319,0.906,21.057,44.006,88.013
-0.411,0.323,0.892,24.292,45.532,95.886
-0.364,0.338,0.879,21.729,44.983,102.295
-0.318,0.337,0.871,12.817,40.222,103.821
-0.296,0.306,0.881,3.357,31.311,99.976
-0.321,0.298,0.898,0.000,23.193,95.032
-0.359,0.302,0.912,0.732,20.325,89.966
-0.389,0.300,0.922,3.052,23.315,84.106
-0.405,0.291,0.908,7.629,31.738,78.308
-0.422,0.286,0.882,13.245,42.603,72.876
-0.410,0.281,0.849,18.311,52.673,70.740
-0.381,0.274,0.822,20.508,58.655,72.632
-0.353,0.252,0.806,18.616,56.946,76.477
-0.323,0.228,0.805,13.977,49.377,81.665
-0.291,0.210,0.820,7.996,39.917,87.769
-0.275,0.192,0.845,1.648,30.640,93.201
-0.275,0.174,0.880,-3.784,23.682,96.619
-0.274,0.154,0.908,-7.080,21.118,96.619
-0.265,0.156,0.916,-6.226,22.339,93.445
-0.263,0.165,0.910,-5.127,26.184,87.585
-0.275,0.175,0.908,-4.395,30.518,80.139
-0.273,0.155,0.898,-5.554,35.095,72.449
-0.255,0.131,0.892,-6.409,40.466,69.275
-0.234,0.128,0.890,-5.188,44.250,70.679
-0.218,0.140,0.880,-4.272,44.800,73.608
-0.215,0.153,0.887,-4.578,42.480,75.195
-0.224,0.160,0.904,-6.348,38.086,74.585
-0.229,0.173,0.911,-7.446,35.095,73.242
-0.247,0.189,0.912,-7.568,33.936,71.106
-0.275,0.196,0.910,-6.592,34.058,67.993
-0.289,0.202,0.904,-4.883,36.499,65.674
-0.274,0.189,0.894,-4.150,40.039,65.002
-0.254,0.187,0.890,-3.235,43.152,67.566
-0.235,0.197,0.906,-2.747,44.189,72.754
-0.201,0.192,0.921,-4.150,43.579,77.026
-0.165,0.187,0.939,-6.104,41.199,80.750
-0.156,0.187,0.960,-6.897,37.964,83.801
-0.157,0.194,0.961,-7.629,35.278,84.473
-0.151,0.171,0.967,-8.179,34.912,83.435
-0.146,0.174,0.960,-6.165,36.377,81.055
-0.150,0.189,0.950,-2.930,38.025,77.881
-0.137,0.178,0.946,-0.549,39.795,75.134
-0.107,0.184,0.946,1.465,42.175,74.524
-0.087,0.191,0.958,1.465,42.664,74.463
-0.068,0.186,0.979,0.366,40.894,74.585
-0.044,0.188,0.989,0.000,38.513,75.195
-0.033,0.188,0.989,-0.488,35.767,76.233
-0.036,0.197,0.999,-2.075,33.142,76.904
-0.046,0.197,0.994,-3.967,31.189,77.271
-0.042,0.183,0.983,-5.005,29.541,75.317
-0.022,0.166,0.977,-5.066,27.466,72.998
0.002,0.149,0.968,-3.784,25.757,72.449
0.019,0.153,0.968,-1.587,23.499,71.899
-1.157,1.514,0.755,-66.589,-95.825,-303.955
-1.219,1.506,0.752,-58.472,-126.709,-256.165
-1.304,1.451,0.724,-45.776,-160.156,-215.759
-1.376,1.428,0.625,-27.222,-175.537,-179.687
-1.358,1.329,0.499,-12.878,-167.542,-154.053
-1.381,1.229,0.371,-4.272,-145.081,-134.033
-1.458,1.146,0.272,2.563,-119.263,-117.188
-1.521,1.063,0.224,1.404,-93.750,-102.051
-1.554,0.969,0.239,-5.737,-71.594,-84.900
-1.552,0.908,0.303,-12.512,-58.044,-68.481
-1.526,0.829,0.406,-15.747,-52.368,-53.650
-1.497,0.786,0.512,-13.733,-46.448,-37.231
-1.464,0.743,0.580,-8.362,-37.842,-22.888
-1.388,0.688,0.617,-2.869,-26.794,-9.766
-1.311,0.641,0.630,-0.793,-18.677,1.770
-1.224,0.598,0.633,-4.333,-11.902,15.564
-1.119,0.574,0.645,-8.118,-8.179,27.893
-1.042,0.545,0.682,-10.254,-7.385,37.842
-0.956,0.513,0.721,-11.169,-6.470,45.593
-0.869,0.473,0.753,-10.315,-2.808,52.551
-0.775,0.457,0.777,-9.460,-1.160,57.190
-0.647,0.448,0.809,-11.292,1.953,62.622
-0.597,0.435,0.845,-11.292,1.282,62.866
-0.561,0.401,0.877,-8.057,-0.549,60.486
-0.514,0.376,0.889,-2.686,1.038,58.777
-0.467,0.377,0.886,4.456,5.554,58.960
-0.431,0.383,0.861,8.057,10.315,57.373
-0.409,0.354,0.842,6.042,11.353,52.551
-0.402,0.339,0.831,6.592,10.437,49.133
-0.398,0.343,0.806,8.118,11.047,47.974
-0.403,0.340,0.783,6.897,12.939,47.119
-0.429,0.334,0.760,5.249,15.259,46.509
-0.454,0.326,0.738,4.333,18.372,46.570
-0.462,0.322,0.737,3.174,21.423,48.035
-0.439,0.310,0.739,1.953,24.536,51.636
-0.408,0.328,0.755,1.160,26.001,56.824
-0.377,0.334,0.779,-0.610,24.719,60.303
-0.366,0.319,0.809,-0.916,21.301,62.317
-0.371,0.333,0.833,1.160,17.700,63.416
-0.354,0.330,0.858,3.723,15.686,63.049
-0.363,0.317,0.872,6.958,15.991,58.472
-0.390,0.318,0.857,5.310,18.250,55.176
-0.431,0.314,0.851,1.892,22.461,52.307
-0.500,0.314,0.838,1.160,27.466,50.537
-0.538,0.307,0.819,3.235,33.813,50.781
-0.562,0.305,0.797,5.432,38.635,53.650
-0.576,0.298,0.779,6.653,41.809,59.875
-0.575,0.291,0.776,6.531,43.518,67.688
-0.535,0.297,0.770,4.883,43.823,76.660
-0.464,0.304,0.759,0.244,41.992,84.839
-0.409,0.306,0.774,-5.981,34.973,89.111
-0.368,0.309,0.804,-10.071,25.085,89.905
-0.363,0.311,0.846,-13.062,16.296,87.036
-0.394,0.298,0.895,-13.000,11.841,82.031
-0.428,0.285,0.927,-9.583,14.893,77.209
-0.440,0.268,0.922,-5.005,24.597,73.303
-0.440,0.255,0.902,-0.183,37.598,71.228
-0.449,0.252,0.890,3.174,47.974,70.984
-0.446,0.233,0.881,4.761,54.871,73.547
-0.440,0.207,0.877,4.639,58.044,78.491
-0.428,0.192,0.872,3.845,58.044,85.571
-0.405,0.187,0.873,1.892,55.725,93.018
-0.379,0.191,0.879,-0.366,52.368,98.816
-0.345,0.196,0.872,-2.747,49.072,100.525
-0.326,0.192,0.860,-5.066,43.701,96.924
-0.343,0.176,0.867,-5.798,36.438,89.478
-0.375,0.168,0.881,-4.028,31.067,82.642
-0.407,0.171,0.882,-1.587,30.762,77.820
-0.427,0.159,0.901,0.244,35.217,76.050
-0.424,0.162,0.900,2.686,42.358,78.186
-0.390,0.175,0.891,4.517,50.232,83.008
-0.371,0.174,0.878,3.540,54.321,87.219
-0.378,0.181,0.888,3.113,55.176,90.698
-0.409,0.185,0.884,1.709,54.077,93.872
-0.396,0.166,0.879,0.671,53.528,97.534
-0.364,0.176,0.854,-0.671,53.223,103.516
-0.306,0.168,0.809,-1.892,51.697,108.948
-0.252,0.195,0.785,-3.235,45.349,110.291
-0.238,0.185,0.809,-8.301,35.522,106.995
-0.237,0.188,0.847,-13.489,26.794,101.990
-0.233,0.205,0.879,-16.968,24.597,98.450
-0.241,0.195,0.911,-19.531,27.954,96.191
-0.260,0.207,0.957,-19.287,34.729,92.773
-0.289,0.213,0.958,-19.531,43.396,89.661
-0.300,0.209,0.964,-17.822,54.626,93.384
-0.308,0.200,0.953,-15.747,62.805,100.098
-0.285,0.200,0.926,-13.123,67.139,107.788
-0.210,0.203,0.903,-11.108,68.604,116.333
-0.114,0.228,0.882,-11.047,64.514,123.108
-0.033,0.235,0.877,-15.503,52.856,123.962
0.000,0.215,0.915,-20.874,35.889,118.164
0.000,0.197,0.965,-24.292,21.362,111.450
-0.014,0.186,0.998,-24.353,15.381,104.980
-0.029,0.168,1.013,-21.118,17.273,98.816
-0.048,0.176,1.013,-14.954,25.757,93.750
-0.053,0.199,0.993,-9.583,36.499,89.294
-0.057,0.196,0.962,-7.141,46.631,85.327
-0.043,0.173,0.943,-7.019,54.382,82.642
-0.038,0.172,0.925,-7.690,58.044,84.045
-0.001,0.181,0.908,-8.545,58.167,87.158
1.600,0.794,0.659,75.317,-132.080,-372.803
1.305,0.823,0.509,82.031,-148.865,-412.292
0.989,0.854,0.373,79.346,-154.419,-448.120
0.613,0.917,0.242,70.313,-141.541,-472.168
0.170,0.923,0.187,53.650,-117.432,-487.976
-0.256,0.883,0.192,34.607,-88.501,-483.398
-0.599,0.888,0.182,18.127,-61.279,-457.031
-0.834,0.991,0.164,6.409,-48.279,-418.518
-1.015,1.163,0.194,-3.479,-55.237,-376.343
-1.166,1.308,0.308,-15.015,-73.059,-335.388
-1.337,1.374,0.504,-25.696,-89.722,-297.302
-1.471,1.373,0.659,-32.349,-97.778,-262.573
-1.533,1.337,0.737,-31.677,-97.351,-229.553
-1.544,1.293,0.731,-24.597,-90.881,-194.885
-1.551,1.249,0.684,-15.564,-84.351,-162.537
-1.552,1.174,0.622,-7.874,-78.491,-138.733
-1.572,1.083,0.571,-6.165,-76.782,-119.568
-1.582,0.935,0.540,-7.141,-72.144,-101.990
-1.565,0.835,0.518,-10.986,-65.735,-82.153
-1.527,0.762,0.518,-17.029,-54.382,-59.387
-1.493,0.709,0.530,-19.653,-44.739,-41.870
-1.439,0.659,0.575,-20.691,-40.039,-27.161
-1.378,0.602,0.624,-17.151,-37.170,-16.968
-1.302,0.539,0.690,-15.564,-33.142,-7.568
-1.234,0.475,0.738,-16.357,-27.222,3.845
-1.152,0.434,0.784,-17.212,-21.851,14.587
-1.083,0.423,0.813,-17.029,-16.235,24.719
-1.017,0.416,0.827,-20.081,-10.071,35.278
-0.951,0.396,0.822,-21.057,-3.052,44.189
-0.875,0.387,0.806,-16.846,2.563,50.537
-0.797,0.379,0.784,-12.878,5.920,56.519
-0.703,0.373,0.757,-13.550,6.287,63.538
-0.641,0.368,0.763,-18.555,1.587,69.702
-0.576,0.359,0.795,-21.362,-0.366,74.707
-0.553,0.381,0.819,-18.005,-2.563,75.928
-0.512,0.341,0.841,-15.259,-1.831,74.219
-0.482,0.307,0.860,-11.963,1.709,72.021
-0.439,0.289,0.854,-9.521,7.629,71.289
-0.417,0.302,0.846,-7.812,13.733,70.740
-0.411,0.291,0.839,-7.385,18.677,67.932
-0.415,0.285,0.838,-5.005,23.010,64.819
-0.436,0.297,0.826,-1.526,27.100,61.768
-0.458,0.295,0.801,0.122,30.396,59.265
-0.473,0.286,0.775,-0.061,32.104,58.411
-0.484,0.277,0.755,-1.343,32.166,60.242
-0.465,0.268,0.740,-3.967,30.640,64.941
-0.425,0.266,0.738,-8.423,27.527,72.144
-0.380,0.269,0.756,-14.832,22.217,79.590
-0.339,0.278,0.785,-20.508,15.930,84.412
-0.318,0.284,0.826,-24.780,10.864,86.060
-0.303,0.292,0.858,-26.428,9.460,84.412
-0.301,0.282,0.900,-24.597,12.451,79.956
-0.311,0.272,0.918,-20.813,19.226,74.463
-0.327,0.262,0.918,-15.137,28.503,68.359
-0.333,0.266,0.910,-10.742,37.659,64.331
-0.323,0.273,0.890,-9.521,44.495,62.378
-0.311,0.268,0.873,-10.803,45.715,59.875
-0.320,0.264,0.864,-11.169,41.443,57.678
-0.337,0.266,0.866,-11.963,34.241,56.946
-0.351,0.258,0.889,-13.733,27.588,57.861
-0.358,0.248,0.919,-14.648,24.231,61.646
-0.354,0.246,0.939,-14.465,23.804,66.467
-0.346,0.245,0.946,-12.939,24.902,69.946
-0.337,0.240,0.945,-10.376,26.489,71.228
-0.318,0.250,0.934,-9.766,28.381,72.388
-0.308,0.249,0.935,-9.338,30.823,72.327
-0.305,0.251,0.937,-7.324,33.752,70.129
-0.309,0.250,0.928,-4.333,37.476,67.139
-0.297,0.252,0.913,-1.343,40.466,64.514
-0.295,0.255,0.886,-0.061,42.786,62.805
-0.276,0.236,0.879,-1.099,43.640,61.096
-0.272,0.196,0.872,-3.418,41.870,60.486
-0.274,0.194,0.879,-4.150,38.696,62.012
-0.281,0.195,0.907,-5.920,35.217,63.965
-0.276,0.177,0.932,-8.850,32.654,65.186
-0.270,0.170,0.948,-9.705,31.250,65.735
-0.277,0.174,0.959,-8.545,30.090,64.941
-0.291,0.169,0.974,-5.737,30.151,63.965
-0.292,0.166,0.973,-0.977,32.104,63.660
-0.284,0.181,0.957,3.845,35.156,63.477
-0.290,0.189,0.937,6.775,37.720,62.439
-0.288,0.186,0.925,8.545,39.795,61.462
-0.276,0.190,0.906,9.705,41.626,61.523
-0.263,0.196,0.869,7.812,41.565,62.317
-0.255,0.206,0.868,3.601,39.734,63.354
-0.271,0.177,0.876,-1.770,37.048,64.148
-0.279,0.154,0.901,-5.249,35.339,64.270
-0.290,0.149,0.911,-4.700,36.255,67.810
-0.296,0.164,0.906,-2.441,38.513,71.411
-0.266,0.176,0.892,-0.427,39.917,74.585
-0.242,0.176,0.892,-0.916,39.124,75.867
-0.238,0.177,0.908,-1.099,36.621,76.355
-0.235,0.182,0.929,0.122,34.485,76.416
-0.227,0.195,0.936,2.197,34.424,76.050
-0.218,0.199,0.932,2.747,35.645,75.562
-0.219,0.192,0.933,3.052,38.025,75.623
-0.234,0.203,0.921,3.296,40.894,76.233
-0.234,0.162,0.912,2.075,44.617,78.186
-0.244,0.197,0.903,1.770,47.424,79.712
-0.237,0.140,0.896,-0.977,49.133,81.787
1.529,0.781,0.604,7.812,-105.896,-339.050
1.333,0.862,0.505,2.014,-118.408,-377.625
1.084,0.979,0.419,1.221,-127.441,-413.879
0.778,1.098,0.378,-2.502,-129.761,-446.045
0.467,1.187,0.416,-7.080,-121.521,-470.520
0.163,1.299,0.460,-9.399,-101.318,-483.948
-0.151,1.424,0.487,-9.521,-77.881,-488.037
-0.464,1.531,0.517,-10.681,-58.289,-482.300
-0.757,1.561,0.525,-13.550,-48.401,-464.111
-1.027,1.532,0.505,-19.592,-53.528,-432.190
-1.283,1.518,0.479,-25.208,-75.806,-388.916
-1.521,1.516,0.462,-29.175,-107.971,-337.463
-1.693,1.484,0.453,-34.363,-138.672,-283.325
-1.753,1.399,0.464,-42.053,-160.095,-231.140
-1.779,1.349,0.487,-43.213,-167.419,-183.228
-1.713,1.307,0.521,-41.870,-158.752,-144.226
-1.677,1.258,0.564,-38.574,-138.428,-117.676
-1.629,1.175,0.616,-30.029,-105.286,-103.149
-1.637,1.079,0.658,-25.330,-72.449,-87.646
-1.609,0.985,0.664,-20.874,-38.330,-68.726
-1.597,0.904,0.666,-17.090,-17.761,-48.706
-1.531,0.789,0.666,-16.724,-11.719,-26.917
-1.414,0.695,0.665,-20.264,-14.893,-1.343
-1.275,0.618,0.670,-23.193,-24.231,21.545
-1.143,0.577,0.708,-24.902,-37.476,40.222
-1.044,0.534,0.761,-27.039,-47.302,53.284
-0.964,0.510,0.813,-27.527,-48.523,61.401
-0.894,0.475,0.856,-24.780,-40.894,64.453
-0.830,0.428,0.878,-19.653,-27.039,64.697
-0.774,0.412,0.876,-12.817,-10.376,65.796
-0.695,0.397,0.877,-6.592,2.014,67.749
-0.616,0.411,0.877,-6.470,9.399,69.824
-0.560,0.425,0.866,-6.287,14.038,72.021
-0.533,0.414,0.865,-5.493,12.817,72.449
-0.509,0.408,0.875,-1.892,9.277,72.571
-0.486,0.424,0.882,1.892,7.263,74.402
-0.471,0.414,0.880,3.601,7.385,75.623
-0.468,0.398,0.863,5.249,8.545,75.439
-0.464,0.372,0.831,9.155,10.437,75.195
-0.454,0.354,0.826,13.184,13.611,76.172
-0.471,0.331,0.803,16.357,17.822,78.918
-0.440,0.316,0.785,18.372,22.461,82.947
-0.407,0.286,0.763,18.066,26.062,86.365
-0.339,0.293,0.743,14.526,28.259,91.797
-0.270,0.299,0.732,5.981,26.489,95.093
-0.232,0.296,0.749,-3.479,19.775,94.604
-0.215,0.266,0.783,-11.841,11.230,90.576
-0.211,0.261,0.829,-16.357,5.310,85.022
-0.208,0.277,0.882,-17.151,4.578,79.590
-0.203,0.290,0.915,-17.944,7.629,73.730
-0.211,0.264,0.948,-18.860,12.146,66.589
-0.244,0.291,0.966,-15.442,16.968,59.265
-0.281,0.278,0.966,-9.949,22.766,52.612
-0.337,0.280,0.960,-3.479,28.198,47.485
-0.379,0.280,0.936,3.723,33.325,45.349
-0.397,0.268,0.888,8.850,37.170,45.776
-0.428,0.290,0.857,14.343,38.574,48.889
-0.449,0.303,0.819,16.724,38.513,53.711
-0.450,0.294,0.792,13.245,37.598,58.228
-0.434,0.291,0.784,7.690,35.461,63.110
-0.428,0.247,0.797,1.892,32.959,68.176
-0.408,0.264,0.812,-0.916,31.860,73.853
-0.383,0.275,0.819,-5.371,31.067,77.209
-0.375,0.262,0.847,-9.705,29.053,76.477
-0.390,0.256,0.884,-10.803,27.893,74.524
-0.400,0.253,0.912,-9.949,29.846,73.425
-0.387,0.258,0.937,-7.263,33.936,73.181
-0.375,0.270,0.945,-2.686,37.903,72.388
-0.373,0.259,0.931,1.343,40.588,69.763
-0.379,0.242,0.918,3.784,41.870,67.383
-0.394,0.231,0.921,6.226,42.908,66.833
-0.404,0.216,0.925,7.812,43.518,68.665
-0.396,0.208,0.913,8.789,44.739,72.388
-0.372,0.197,0.894,7.629,44.373,77.026
-0.349,0.159,0.880,5.615,41.443,83.496
-0.324,0.173,0.870,3.662,36.560,88.074
-0.307,0.128,0.868,0.122,31.677,91.370
-0.266,0.129,0.885,-2.014,28.564,93.567
-0.234,0.147,0.911,-3.296,27.710,94.482
-0.215,0.164,0.931,-3.113,27.771,93.628
-0.208,0.159,0.941,-3.784,29.724,87.891
-0.215,0.159,0.940,-2.380,33.752,81.055
-0.231,0.179,0.937,0.366,38.940,74.829
-0.254,0.174,0.927,1.892,44.495,71.289
-0.242,0.178,0.918,2.563,50.049,72.815
-0.233,0.181,0.893,1.465,51.453,75.195
-0.221,0.185,0.895,0.366,47.668,77.637
-0.209,0.161,0.899,-1.282,42.664,83.435
-0.201,0.174,0.924,-2.686,37.598,89.966
-0.184,0.167,0.927,-5.493,33.447,95.276
-0.154,0.166,0.956,-6.165,30.884,99.548
-0.110,0.192,0.965,-4.761,30.579,100.525
-0.081,0.184,0.973,-4.272,29.724,95.947
-0.078,0.196,0.987,-2.563,27.710,88.562
-0.094,0.171,0.981,0.061,27.466,82.642
-0.109,0.168,0.971,2.319,29.114,75.500
-0.128,0.162,0.948,3.357,31.799,68.970
-0.133,0.143,0.907,4.517,34.790,66.040
-0.136,0.142,0.870,5.127,37.476,67.200
-0.141,0.136,0.841,3.479,37.720,69.580
-1.382,1.539,0.670,-32.410,-87.219,-388.855
-1.593,1.446,0.654,-40.649,-103.943,-337.708
-1.684,1.375,0.624,-44.556,-123.840,-276.611
-1.721,1.359,0.606,-42.236,-143.982,-218.262
-1.709,1.288,0.619,-40.894,-159.241,-171.021
-1.685,1.222,0.672,-38.025,-162.476,-137.024
-1.678,1.145,0.719,-32.288,-147.705,-114.502
-1.645,1.057,0.727,-26.123,-119.446,-97.900
-1.633,0.968,0.736,-16.907,-85.938,-83.435
-1.605,0.885,0.725,-3.723,-57.861,-71.228
-1.568,0.803,0.697,5.493,-39.917,-55.908
-1.495,0.706,0.665,4.517,-31.372,-34.973
-1.412,0.627,0.654,-0.244,-34.241,-12.024
-1.290,0.574,0.659,-6.531,-41.565,13.245
-1.159,0.539,0.678,-10.742,-49.927,34.424
-1.036,0.493,0.698,-16.052,-53.589,51.331
-0.921,0.479,0.714,-18.433,-51.208,62.561
-0.819,0.461,0.733,-20.020,-43.762,67.810
-0.718,0.402,0.771,-20.264,-32.898,68.726
-0.604,0.360,0.790,-17.395,-23.499,69.458
-0.489,0.346,0.831,-15.808,-14.954,70.313
-0.411,0.337,0.856,-13.916,-11.597,67.688
-0.372,0.301,0.891,-10.620,-11.841,62.744
-0.345,0.284,0.894,-7.202,-9.949,56.519
-0.315,0.270,0.883,-5.615,-5.676,50.415
-0.315,0.258,0.869,-1.587,-0.671,44.067
-0.330,0.260,0.851,4.639,5.371,38.391
-0.337,0.246,0.819,7.080,11.963,35.400
-0.328,0.230,0.798,6.470,15.991,36.133
-0.326,0.239,0.791,5.615,15.076,39.856
-0.309,0.261,0.787,4.944,12.329,44.067
-0.306,0.277,0.799,3.052,9.583,46.265
-0.322,0.291,0.814,1.770,8.911,46.326
-0.344,0.290,0.828,1.831,11.841,45.044
-0.356,0.291,0.837,4.028,16.296,43.457
-0.359,0.287,0.837,6.653,21.118,42.419
-0.350,0.270,0.834,7.202,23.865,42.603
-0.320,0.268,0.838,7.263,22.888,45.227
-0.294,0.277,0.854,6.104,19.165,47.424
-0.281,0.285,0.874,1.221,13.062,50.293
-0.275,0.286,0.897,-4.700,6.775,51.331
-0.280,0.279,0.904,-8.362,2.747,49.500
-0.317,0.293,0.908,-8.179,0.977,45.593
-0.376,0.298,0.915,-6.958,3.174,40.405
-0.449,0.300,0.911,-3.601,10.071,36.011
-0.514,0.299,0.884,1.770,20.935,33.081
-0.552,0.289,0.839,7.751,32.288,33.081
-0.562,0.285,0.798,10.864,41.077,37.292
-0.541,0.287,0.777,9.827,43.823,45.837
-0.511,0.292,0.772,6.226,39.490,55.237
-0.468,0.291,0.779,0.488,29.480,64.148
-0.434,0.292,0.805,-4.578,20.020,70.679
-0.419,0.292,0.833,-9.888,12.451,74.585
-0.419,0.285,0.870,-14.160,8.423,75.073
-0.431,0.277,0.903,-15.381,9.766,73.303
-0.446,0.274,0.925,-14.160,16.113,70.557
-0.450,0.268,0.923,-10.132,25.940,67.749
-0.446,0.260,0.909,-4.639,35.828,65.613
-0.426,0.247,0.883,0.366,43.213,66.101
-0.400,0.247,0.874,2.441,46.387,68.909
-0.384,0.230,0.885,0.732,44.556,73.547
-0.366,0.228,0.905,-2.319,40.466,79.163
-0.364,0.190,0.914,-6.226,35.828,84.106
-0.376,0.198,0.934,-6.409,32.349,87.708
-0.363,0.211,0.921,-5.798,30.762,88.074
-0.367,0.197,0.914,-6.104,29.480,84.839
-0.408,0.207,0.898,-4.333,28.748,80.200
-0.428,0.200,0.875,-0.305,30.884,75.745
-0.435,0.216,0.861,3.174,36.011,72.021
-0.441,0.226,0.818,4.517,44.250,70.679
-0.396,0.216,0.772,5.127,51.758,73.486
-0.348,0.238,0.772,3.113,54.443,77.698
-0.331,0.225,0.764,-3.601,52.185,82.397
-0.282,0.193,0.802,-10.315,46.570,88.928
-0.264,0.202,0.843,-15.320,39.185,95.276
-0.254,0.217,0.887,-17.517,32.715,101.318
-0.232,0.211,0.932,-19.653,28.809,103.271
-0.208,0.213,0.962,-18.555,27.954,103.149
-0.183,0.209,0.979,-15.869,29.114,100.342
-0.158,0.204,0.993,-12.512,30.823,96.558
-0.120,0.203,1.000,-9.705,32.104,92.773
-0.098,0.201,0.997,-8.179,31.555,87.952
-0.086,0.191,1.002,-8.301,29.663,82.336
-0.114,0.166,1.000,-9.583,27.405,75.012
-0.139,0.196,1.021,-8.301,29.053,70.129
-0.171,0.179,1.006,-8.972,31.128,66.711
-0.197,0.170,0.979,-6.592,35.217,65.308
-0.244,0.191,0.969,-2.563,40.405,65.308
-0.258,0.180,0.942,1.160,45.410,67.627
-0.258,0.193,0.928,4.883,49.561,71.411
-0.257,0.205,0.933,6.775,52.368,76.904
-0.211,0.218,0.932,6.409,54.077,83.435
-0.123,0.232,0.922,3.601,53.284,89.111
-0.059,0.234,0.928,-0.183,47.241,91.064
-0.017,0.228,0.940,-3.784,36.560,89.050
-0.015,0.213,0.968,-6.531,25.635,84.839
-0.033,0.204,0.997,-7.263,18.921,80.078
-0.050,0.182,1.009,-6.042,18.555,76.477
-0.064,0.168,1.000,-3.174,22.888,73.914
-0.095,0.193,0.977,0.977,28.442,71.411
-1.413,1.444,0.790,-52.368,-83.557,-349.731
-1.580,1.453,0.783,-46.692,-108.765,-297.974
-1.655,1.430,0.726,-37.231,-134.155,-249.023
-1.664,1.385,0.639,-29.541,-152.161,-203.186
-1.675,1.365,0.557,-21.057,-159.485,-163.696
-1.715,1.309,0.502,-15.015,-153.564,-135.620
-1.753,1.242,0.482,-13.916,-132.935,-113.342
-1.802,1.138,0.451,-12.329,-101.807,-94.299
-1.806,1.003,0.437,-9.338,-67.444,-74.707
-1.778,0.835,0.436,-7.935,-43.518,-52.612
-1.660,0.705,0.427,-8.728,-32.104,-25.574
-1.517,0.584,0.432,-5.249,-29.602,0.549
-1.367,0.508,0.462,-6.958,-36.133,22.522
-1.224,0.440,0.487,-15.686,-40.955,40.771
-1.076,0.358,0.528,-24.170,-39.978,52.917
-0.928,0.318,0.577,-27.100,-32.715,60.364
-0.785,0.311,0.628,-26.367,-18.738,61.157
-0.656,0.329,0.684,-30.823,-7.080,59.998
-0.580,0.328,0.776,-40.649,2.625,57.190
-0.535,0.319,0.862,-43.152,9.338,51.941
-0.488,0.324,0.932,-38.452,12.756,48.462
-0.469,0.357,0.999,-29.785,14.282,46.204
-0.467,0.356,1.041,-21.667,16.357,43.640
-0.466,0.357,1.055,-13.550,18.433,42.053
-0.459,0.349,1.029,-3.967,18.616,42.969
-0.404,0.345,0.996,4.272,16.479,46.326
-0.366,0.342,0.955,7.690,11.169,49.316
-0.338,0.320,0.922,9.460,4.761,51.086
-0.334,0.297,0.901,9.644,1.099,52.368
-0.316,0.287,0.878,10.071,0.977,53.772
-0.268,0.293,0.865,9.766,3.235,53.772
-0.254,0.298,0.858,8.728,5.615,50.964
-0.266,0.297,0.863,7.385,7.690,45.410
-0.294,0.266,0.856,4.822,11.841,39.185
-0.314,0.274,0.847,4.639,17.151,36.194
-0.318,0.276,0.846,4.700,21.484,35.583
-0.344,0.316,0.850,4.150,23.315,36.133
-0.349,0.313,0.854,2.014,21.179,34.058
-0.393,0.319,0.868,2.502,17.456,33.264
-0.448,0.322,0.855,5.371,15.381,33.936
-0.452,0.316,0.844,8.606,16.235,36.133
-0.480,0.305,0.814,10.986,19.348,38.452
-0.463,0.286,0.776,7.751,21.179,43.701
-0.442,0.275,0.775,-0.061,17.090,51.147
-0.396,0.281,0.781,-7.080,9.766,59.509
-0.344,0.294,0.829,-13.367,-0.183,64.453
-0.328,0.303,0.887,-17.395,-8.484,65.247
-0.335,0.287,0.933,-17.944,-11.414,61.218
-0.376,0.287,0.971,-14.648,-6.897,55.847
-0.396,0.261,0.969,-9.827,4.822,49.133
-0.420,0.268,0.973,-1.404,19.836,45.776
-0.437,0.262,0.958,6.958,32.104,43.823
-0.459,0.246,0.927,13.611,39.551,43.030
-0.481,0.233,0.882,18.372,42.908,44.800
-0.490,0.228,0.857,21.301,42.603,48.584
-0.488,0.214,0.822,20.020,40.527,54.321
-0.459,0.202,0.798,15.198,35.645,60.608
-0.427,0.198,0.793,9.827,28.503,67.078
-0.393,0.197,0.804,3.357,19.226,71.960
-0.370,0.199,0.831,-2.502,9.277,74.280
-0.375,0.189,0.864,-7.385,1.770,74.036
-0.387,0.183,0.897,-9.949,-0.671,71.777
-0.385,0.186,0.921,-8.362,2.747,68.481
-0.387,0.184,0.928,-5.127,11.536,64.575
-0.387,0.174,0.917,-1.404,22.095,60.669
-0.388,0.163,0.893,1.953,30.762,57.983
-0.390,0.161,0.885,4.028,35.522,57.922
-0.401,0.153,0.894,5.249,36.804,59.448
-0.417,0.138,0.893,5.920,36.072,62.195
-0.432,0.129,0.883,6.714,34.119,65.430
-0.453,0.131,0.864,7.629,32.104,69.214
-0.466,0.126,0.850,7.507,30.640,73.059
-0.449,0.120,0.827,6.775,30.334,77.271
-0.413,0.125,0.803,4.211,29.602,81.665
-0.377,0.130,0.797,-0.305,26.245,85.327
-0.334,0.125,0.810,-6.348,20.508,87.891
-0.310,0.120,0.834,-12.329,14.343,88.440
-0.302,0.118,0.870,-16.846,9.277,86.487
-0.309,0.117,0.902,-18.555,8.301,83.008
-0.324,0.129,0.927,-17.639,12.817,79.102
-0.354,0.142,0.955,-14.771,21.057,75.317
-0.375,0.151,0.958,-9.583,31.250,72.327
-0.391,0.161,0.935,-3.418,40.955,69.885
-0.399,0.162,0.901,2.075,47.485,68.970
-0.402,0.166,0.871,5.005,49.988,70.435
-0.392,0.152,0.839,3.235,47.913,74.707
-0.383,0.134,0.834,-0.610,41.809,80.933
-0.370,0.129,0.838,-5.127,33.630,88.623
-0.365,0.127,0.851,-9.521,25.696,95.886
-0.351,0.127,0.866,-13.184,19.958,101.990
-0.314,0.121,0.882,-15.442,16.907,106.567
-0.301,0.133,0.901,-15.076,17.273,108.582
-0.271,0.149,0.911,-13.306,20.325,107.300
-0.246,0.160,0.923,-11.780,26.978,103.821
-0.234,0.155,0.948,-10.193,34.790,99.609
-0.214,0.161,0.964,-7.812,43.701,97.046
-0.189,0.169,0.970,-6.653,51.208,96.252
-0.176,0.160,0.974,-6.897,54.565,95.520
-0.160,0.148,0.974,-6.958,53.650,95.886
-0.152,0.141,0.970,-6.653,49.194,95.947
-1.123,1.414,0.707,-15.930,-125.854,-277.527
-1.274,1.339,0.720,-14.709,-141.907,-249.878
-1.367,1.259,0.689,-10.437,-137.329,-222.229
-1.412,1.193,0.631,-6.714,-119.873,-192.261
-1.424,1.143,0.588,-7.080,-101.013,-164.185
-1.444,1.090,0.577,-11.780,-87.097,-141.235
-1.454,1.034,0.587,-17.700,-74.158,-121.704
-1.476,0.973,0.616,-19.958,-62.561,-106.079
-1.495,0.892,0.655,-17.456,-54.077,-93.262
-1.547,0.859,0.693,-12.024,-47.546,-80.322
-1.567,0.774,0.705,-10.376,-41.565,-67.139
-1.539,0.657,0.693,-11.841,-36.987,-49.377
-1.474,0.576,0.675,-11.780,-35.889,-27.649
-1.376,0.525,0.671,-10.986,-38.635,-4.761
-1.272,0.474,0.680,-9.094,-42.297,14.343
-1.168,0.430,0.692,-8.484,-44.250,29.541
-1.045,0.402,0.718,-10.193,-40.833,42.847
-0.915,0.361,0.753,-13.977,-33.997,51.086
-0.805,0.347,0.764,-15.869,-30.396,55.115
-0.694,0.299,0.795,-18.372,-21.606,57.251
-0.609,0.286,0.834,-17.639,-16.907,57.495
-0.541,0.283,0.866,-16.174,-15.381,56.335
-0.493,0.265,0.883,-16.907,-13.489,52.979
-0.454,0.261,0.893,-16.296,-10.620,49.622
-0.424,0.260,0.891,-13.794,-6.165,46.387
-0.410,0.256,0.889,-9.705,-1.282,42.725
-0.410,0.248,0.875,-6.042,2.747,39.795
-0.393,0.234,0.857,-3.357,7.202,38.513
-0.372,0.226,0.840,-1.221,10.681,39.795
-0.337,0.230,0.833,0.183,11.536,42.114
-0.306,0.235,0.830,0.366,9.338,44.006
-0.288,0.235,0.843,-1.221,4.700,45.166
-0.244,0.224,0.853,-3.479,-0.244,45.349
-0.199,0.240,0.880,-6.470,-3.784,44.373
-0.195,0.230,0.914,-10.559,-6.836,39.551
-0.218,0.222,0.941,-11.353,-5.615,32.837
-0.246,0.226,0.940,-9.644,1.892,26.917
-0.255,0.238,0.930,-7.629,11.292,21.973
-0.300,0.234,0.924,-5.127,18.555,17.395
-0.339,0.235,0.911,-1.526,21.973,14.771
-0.381,0.204,0.888,1.404,22.766,13.855
-0.383,0.200,0.856,1.953,21.301,18.860
-0.349,0.226,0.836,0.061,16.296,25.818
-0.328,0.232,0.850,-2.930,7.935,29.236
-0.336,0.245,0.873,-4.211,-0.305,30.457
-0.349,0.261,0.892,-4.028,0.427,29.419
-0.377,0.276,0.889,-3.357,4.761,26.001
-0.417,0.277,0.898,-3.418,12.695,22.888
-0.470,0.284,0.891,-1.099,21.790,20.874
-0.523,0.303,0.875,1.160,30.457,21.118
-0.573,0.298,0.858,3.662,37.354,24.292
-0.600,0.289,0.856,5.310,40.649,31.189
-0.591,0.271,0.859,6.531,39.612,41.931
-0.549,0.279,0.854,6.104,34.851,55.298
-0.493,0.286,0.849,3.662,26.367,67.566
-0.428,0.285,0.850,-0.671,15.808,75.623
-0.373,0.283,0.876,-5.493,4.395,78.918
-0.360,0.281,0.915,-9.338,-3.601,77.087
-0.372,0.263,0.955,-10.559,-4.639,70.862
-0.412,0.245,0.986,-8.240,2.380,63.293
-0.465,0.224,0.984,-3.540,16.968,57.373
-0.494,0.222,0.966,3.784,35.156,55.054
-0.514,0.224,0.920,10.559,50.232,56.458
-0.512,0.223,0.874,15.015,58.472,60.303
-0.505,0.218,0.829,15.198,58.167,65.796
-0.510,0.214,0.817,11.780,49.622,72.144
-0.500,0.209,0.817,7.874,37.476,79.285
-0.486,0.205,0.828,2.930,25.574,86.609
-0.465,0.188,0.829,-3.174,16.357,92.590
-0.435,0.182,0.852,-6.409,10.864,97.412
-0.395,0.202,0.858,-9.644,9.460,99.548
-0.370,0.173,0.846,-13.306,11.719,99.487
-0.332,0.173,0.864,-14.771,15.747,99.182
-0.328,0.189,0.879,-17.517,20.264,96.130
-0.327,0.176,0.880,-17.334,25.452,92.896
-0.346,0.173,0.901,-17.273,32.166,89.294
-0.352,0.162,0.898,-15.320,39.795,86.487
-0.368,0.168,0.882,-12.207,46.753,86.182
-0.397,0.183,0.860,-8.423,52.124,88.501
-0.369,0.194,0.829,-7.629,55.420,91.858
-0.358,0.191,0.799,-10.132,54.932,95.154
-0.351,0.165,0.788,-12.756,50.354,99.182
-0.309,0.161,0.808,-14.648,44.189,105.713
-0.278,0.177,0.816,-17.395,38.513,112.183
-0.243,0.207,0.840,-19.043,32.410,115.906
-0.218,0.220,0.882,-24.475,27.832,115.784
-0.167,0.203,0.910,-29.846,26.550,112.427
-0.142,0.194,0.951,-32.837,28.503,108.826
-0.125,0.181,0.985,-32.227,30.945,103.943
-0.146,0.179,1.008,-25.818,36.194,99.792
-0.163,0.178,1.019,-15.015,43.884,97.778
-0.189,0.181,0.993,-6.958,52.795,96.375
-0.198,0.193,0.952,1.038,60.791,96.863
-0.187,0.215,0.901,4.089,64.941,96.252
-0.158,0.211,0.861,0.000,64.026,97.046
-0.088,0.180,0.846,-5.920,58.228,99.304
-0.042,0.159,0.849,-11.780,47.852,100.830
-0.011,0.147,0.881,-14.099,35.095,101.868
-0.009,0.177,0.924,-17.212,24.902,99.426
0.009,0.195,0.980,-20.081,20.569,98.389
-1.194,1.522,0.783,-55.908,-23.193,-404.480
-1.428,1.554,0.808,-64.148,-53.833,-345.886
-1.528,1.562,0.798,-62.683,-100.342,-284.119
-1.538,1.520,0.776,-50.964,-151.245,-229.919
-1.507,1.496,0.728,-32.349,-187.866,-183.838
-1.480,1.494,0.657,-12.512,-198.364,-150.513
-1.470,1.408,0.565,-1.587,-182.556,-134.888
-1.529,1.249,0.459,2.075,-145.996,-127.563
-1.609,1.124,0.371,5.005,-101.685,-115.295
-1.686,0.987,0.323,7.141,-64.880,-101.135
-1.688,0.881,0.341,3.784,-42.908,-77.881
-1.704,0.715,0.377,3.052,-33.997,-56.641
-1.616,0.599,0.443,-4.883,-36.926,-30.762
-1.485,0.529,0.509,-20.935,-41.931,-0.305
-1.361,0.461,0.561,-20.508,-44.128,21.606
-1.201,0.421,0.622,-18.250,-49.316,32.349
-1.084,0.396,0.672,-16.907,-45.349,41.504
-1.008,0.389,0.698,-16.296,-33.264,47.485
-0.901,0.345,0.724,-12.451,-20.142,48.523
-0.815,0.336,0.755,-12.268,-10.254,47.729
-0.746,0.326,0.776,-13.550,-0.366,48.401
-0.687,0.302,0.808,-14.893,4.822,48.706
-0.653,0.293,0.853,-13.306,6.348,49.072
-0.613,0.296,0.878,-9.521,7.263,50.354
-0.564,0.295,0.883,-8.301,7.690,51.025
-0.522,0.285,0.901,-5.920,7.324,50.659
-0.485,0.269,0.903,-2.136,7.385,50.903
-0.430,0.272,0.903,-0.427,8.057,52.490
-0.357,0.291,0.904,0.305,7.690,54.016
-0.319,0.293,0.920,-0.977,5.310,52.673
-0.321,0.269,0.937,-1.892,2.441,48.889
-0.333,0.247,0.935,0.366,2.869,46.082
-0.327,0.239,0.916,3.723,5.737,44.800
-0.315,0.248,0.895,5.005,8.484,43.823
-0.320,0.247,0.882,5.005,9.705,41.992
-0.340,0.240,0.866,5.554,10.925,39.856
-0.369,0.234,0.847,5.554,12.512,38.147
-0.398,0.231,0.834,6.165,14.465,37.781
-0.407,0.219,0.816,6.287,17.334,38.574
-0.395,0.218,0.796,5.493,19.287,40.588
-0.376,0.232,0.789,2.686,17.517,42.969
-0.358,0.222,0.801,-2.075,13.000,44.617
-0.353,0.224,0.829,-5.554,7.874,45.654
-0.350,0.234,0.876,-7.019,4.761,46.204
-0.372,0.219,0.903,-5.798,5.310,44.006
-0.380,0.228,0.900,-4.761,8.179,42.297
-0.423,0.257,0.900,-3.418,12.146,41.504
-0.443,0.250,0.902,-0.061,17.029,39.429
-0.486,0.245,0.894,3.052,23.865,38.818
-0.517,0.249,0.859,8.606,30.090,41.260
-0.514,0.259,0.826,11.108,31.921,44.739
-0.510,0.242,0.796,7.935,29.602,48.096
-0.523,0.226,0.778,3.113,24.048,52.734
-0.531,0.215,0.768,-1.770,18.494,58.594
-0.517,0.220,0.784,-5.432,14.893,63.599
-0.511,0.222,0.808,-7.874,14.893,66.772
-0.500,0.220,0.827,-9.460,19.043,66.833
-0.504,0.210,0.842,-9.033,25.635,65.247
-0.487,0.195,0.849,-7.812,34.363,64.392
-0.449,0.181,0.851,-7.629,41.687,65.002
-0.425,0.205,0.861,-8.850,44.312,67.139
-0.396,0.195,0.875,-11.292,41.565,67.810
-0.379,0.192,0.902,-12.085,36.255,67.566
-0.380,0.191,0.925,-10.254,30.273,67.444
-0.401,0.205,0.948,-7.751,24.902,66.101
-0.418,0.185,0.943,-6.348,22.949,62.805
-0.441,0.176,0.921,-3.235,25.330,61.951
-0.452,0.167,0.898,-0.854,28.748,62.988
-0.445,0.152,0.869,-0.549,32.532,66.467
-0.431,0.137,0.843,-2.197,34.729,71.350
-0.420,0.115,0.826,-5.188,34.851,76.782
-0.417,0.105,0.824,-7.996,33.447,82.275
-0.422,0.104,0.828,-9.705,32.837,87.463
-0.405,0.114,0.831,-11.230,35.645,92.407
-0.350,0.131,0.828,-13.428,40.710,95.642
-0.281,0.146,0.827,-16.724,44.373,96.619
-0.230,0.152,0.849,-20.264,43.579,94.543
-0.194,0.154,0.887,-23.193,39.001,90.210
-0.187,0.156,0.927,-24.719,33.203,84.778
-0.195,0.151,0.963,-24.048,29.358,79.590
-0.210,0.152,0.993,-20.874,29.602,74.951
-0.243,0.152,1.003,-15.747,33.630,70.984
-0.287,0.148,1.001,-11.536,40.039,67.871
-0.329,0.133,0.989,-5.371,47.485,67.749
-0.355,0.121,0.961,0.732,54.810,71.045
-0.361,0.114,0.926,5.249,60.059,77.454
-0.344,0.114,0.886,6.775,61.768,85.938
-0.305,0.124,0.847,4.211,60.059,95.520
-0.253,0.129,0.826,-1.831,54.749,104.248
-0.204,0.140,0.841,-8.667,47.668,111.145
-0.166,0.156,0.880,-14.771,40.588,115.479
-0.132,0.172,0.922,-19.958,35.522,116.272
-0.095,0.194,0.958,-22.766,33.997,114.258
-0.054,0.209,0.980,-23.376,35.400,109.863
-0.018,0.209,1.013,-21.057,37.048,102.173
-0.009,0.188,1.032,-16.296,37.537,92.773
-0.021,0.191,1.034,-11.108,36.926,83.374
-0.054,0.180,1.041,-7.080,36.804,76.050
-0.073,0.156,1.023,-4.639,38.513,71.167
-0.104,0.156,1.004,-0.610,39.673,70.435
1.461,0.492,1.188,47.485,-44.006,-173.767
1.503,0.529,1.136,52.795,-38.147,-211.914
1.501,0.540,1.084,51.514,-41.138,-250.732
1.440,0.557,1.047,49.133,-50.781,-287.720
1.345,0.527,0.970,45.227,-63.354,-321.411
1.271,0.561,0.874,42.664,-76.050,-346.558
1.154,0.687,0.778,38.025,-90.515,-369.263
0.985,0.782,0.692,25.879,-105.652,-397.705
0.738,0.888,0.659,7.812,-121.216,-427.917
0.419,1.008,0.662,-1.343,-134.888,-455.322
0.069,1.129,0.646,-5.066,-140.442,-474.060
-0.162,1.279,0.586,-4.700,-132.874,-472.412
-0.455,1.473,0.516,-1.221,-118.530,-460.327
-0.771,1.578,0.485,-9.155,-104.675,-438.904
-1.088,1.595,0.451,-21.240,-93.872,-401.978
-1.348,1.566,0.406,-31.799,-96.802,-351.990
-1.496,1.537,0.383,-38.269,-115.967,-296.082
-1.629,1.487,0.379,-36.255,-142.517,-242.187
-1.711,1.388,0.406,-27.954,-159.363,-195.496
-1.771,1.325,0.417,-11.780,-155.090,-158.447
-1.779,1.228,0.373,6.470,-129.639,-131.592
-1.862,1.122,0.321,23.987,-92.773,-113.220
-1.889,0.999,0.226,32.166,-48.157,-90.637
-1.818,0.859,0.146,37.781,-10.559,-67.078
-1.710,0.730,0.124,32.227,2.625,-43.701
-1.540,0.600,0.171,16.052,1.770,-14.832
-1.380,0.515,0.247,-1.038,-6.775,12.390
-1.203,0.472,0.346,-17.944,-15.381,34.302
-1.067,0.442,0.462,-31.128,-20.874,46.631
-0.950,0.423,0.549,-38.391,-19.348,51.697
-0.844,0.378,0.626,-43.152,-12.024,51.758
-0.753,0.356,0.681,-44.006,-2.197,50.110
-0.701,0.346,0.728,-39.551,5.371,46.631
-0.648,0.326,0.773,-33.264,8.972,45.593
-0.617,0.308,0.822,-27.466,9.033,45.776
-0.596,0.294,0.871,-21.118,8.179,47.668
-0.590,0.272,0.909,-14.099,6.836,49.988
-0.573,0.241,0.932,-7.385,5.737,53.284
-0.572,0.263,0.937,-1.099,6.042,58.960
-0.540,0.232,0.923,2.380,7.446,62.439
-0.517,0.255,0.904,5.676,9.583,64.941
-0.464,0.250,0.861,4.395,10.376,64.331
-0.396,0.251,0.850,1.526,8.240,62.256
-0.391,0.240,0.854,-0.061,5.005,58.899
-0.379,0.228,0.860,-2.136,5.127,55.237
-0.333,0.240,0.876,-3.357,9.094,53.955
-0.296,0.254,0.883,-6.348,14.160,52.979
-0.276,0.252,0.891,-9.155,18.066,50.415
-0.263,0.251,0.885,-9.155,18.250,46.265
-0.267,0.284,0.886,-7.996,18.127,42.786
-0.283,0.283,0.885,-9.460,18.127,38.147
-0.296,0.268,0.882,-10.803,18.494,34.424
-0.319,0.265,0.875,-9.644,19.165,32.837
-0.306,0.280,0.868,-8.850,19.653,33.081
-0.294,0.285,0.870,-10.315,18.616,33.447
-0.293,0.268,0.876,-12.756,15.564,32.715
-0.310,0.261,0.890,-13.672,12.207,31.677
-0.329,0.261,0.897,-13.550,10.864,30.884
-0.330,0.265,0.886,-13.367,11.780,29.968
-0.341,0.262,0.870,-14.893,13.428,28.015
-0.359,0.260,0.867,-15.625,14.893,25.635
-0.365,0.255,0.866,-15.442,17.639,24.902
-0.359,0.256,0.869,-14.893,21.057,25.452
-0.335,0.277,0.898,-15.442,23.376,27.588
-0.334,0.283,0.941,-16.541,22.339,29.724
-0.333,0.267,0.969,-13.855,19.775,30.579
-0.364,0.309,1.004,-6.042,18.555,31.982
-0.432,0.324,1.000,2.075,20.142,31.982
-0.476,0.349,0.989,8.667,25.208,30.823
-0.511,0.317,0.956,10.681,32.898,28.870
-0.515,0.312,0.909,14.465,40.222,31.921
-0.498,0.309,0.850,15.869,42.969,38.330
-0.481,0.281,0.819,13.611,38.330,44.067
-0.459,0.266,0.809,10.681,30.396,50.842
-0.439,0.266,0.811,7.385,23.193,57.617
-0.410,0.268,0.825,2.991,18.005,62.439
-0.407,0.264,0.843,-1.160,15.503,63.843
-0.423,0.272,0.863,-3.113,16.907,61.890
-0.459,0.286,0.872,-2.930,23.071,57.312
-0.515,0.276,0.870,-1.038,34.668,52.307
-0.571,0.268,0.851,3.418,48.889,49.500
-0.601,0.260,0.819,8.545,62.500,50.232
-0.588,0.248,0.783,12.207,71.838,55.359
-0.557,0.237,0.766,12.024,73.059,64.819
-0.521,0.219,0.766,9.277,65.979,76.660
-0.473,0.208,0.779,4.700,53.894,89.172
-0.415,0.208,0.809,-1.038,41.199,101.440
-0.381,0.199,0.842,-7.690,29.724,110.901
-0.362,0.212,0.858,-12.939,22.644,116.272
-0.334,0.185,0.887,-17.151,21.729,116.089
-0.340,0.193,0.892,-17.029,25.208,110.901
-0.380,0.185,0.900,-12.268,33.081,102.539
-0.413,0.161,0.879,-7.141,45.105,93.689
-0.419,0.165,0.839,-2.258,59.082,89.233
-0.416,0.180,0.794,1.587,70.557,89.539
-0.387,0.227,0.774,2.747,76.294,92.834
-0.331,0.233,0.758,-1.160,76.294,97.412
-0.305,0.234,0.785,-7.019,70.435,105.347
-0.296,0.275,0.815,-11.841,61.218,112.366
-0.304,0.286,0.852,-18.066,52.734,116.516
-1.262,1.138,0.706,-29.480,-140.442,-185.669
-1.322,1.110,0.731,-19.958,-146.362,-155.945
-1.370,1.069,0.723,-11.963,-140.137,-134.705
-1.382,1.014,0.673,-5.554,-123.108,-118.164
-1.377,0.974,0.606,-0.977,-99.304,-101.318
-1.364,0.945,0.566,-3.723,-74.890,-82.214
-1.330,0.885,0.561,-7.141,-52.795,-64.636
-1.276,0.840,0.582,-10.254,-36.011,-47.180
-1.203,0.766,0.654,-16.418,-26.917,-29.663
-1.129,0.694,0.739,-23.071,-24.414,-12.512
-1.002,0.612,0.801,-22.217,-26.001,2.869
-0.910,0.582,0.860,-17.395,-30.334,16.296
-0.841,0.573,0.904,-15.198,-34.790,24.414
-0.767,0.478,0.927,-15.747,-35.400,26.611
-0.716,0.431,0.938,-10.010,-31.677,29.114
-0.670,0.409,0.906,-3.479,-24.597,30.579
-0.627,0.367,0.875,0.061,-19.409,28.870
-0.616,0.339,0.852,-3.418,-13.611,30.396
-0.605,0.324,0.833,-4.272,-7.385,33.386
-0.563,0.326,0.835,-2.747,-3.967,36.194
-0.503,0.355,0.849,-0.977,-2.563,39.551
-0.461,0.362,0.870,-1.526,-1.709,41.199
-0.432,0.353,0.891,-0.671,0.122,42.175
-0.385,0.317,0.893,1.282,3.418,44.189
-0.319,0.331,0.920,4.028,4.944,48.462
-0.247,0.344,0.940,5.615,3.174,50.598
-0.209,0.347,0.972,9.155,-0.549,49.500
-0.197,0.319,0.997,9.644,-4.333,44.312
-0.211,0.288,1.000,11.475,-5.859,37.537
-0.230,0.282,0.969,15.686,-2.808,33.447
-0.225,0.277,0.927,18.555,1.587,30.273
-0.237,0.277,0.890,19.836,4.578,27.710
-0.253,0.286,0.844,17.944,4.333,24.963
-0.283,0.278,0.822,13.062,2.319,22.400
-0.311,0.272,0.814,9.033,1.831,21.484
-0.326,0.276,0.826,5.737,4.089,22.949
-0.323,0.281,0.858,3.662,6.653,25.696
-0.314,0.285,0.888,2.197,7.935,28.687
-0.309,0.284,0.915,1.953,7.507,31.494
-0.305,0.288,0.937,3.296,6.714,33.630
-0.303,0.296,0.960,6.348,6.226,35.278
-0.304,0.285,0.970,10.437,6.775,36.133
-0.316,0.273,0.967,15.320,7.385,35.950
-0.322,0.258,0.955,20.935,7.935,35.645
-0.318,0.263,0.923,22.583,8.179,35.645
-0.319,0.258,0.896,20.264,7.263,35.522
-0.333,0.260,0.880,19.226,5.920,34.363
-0.351,0.257,0.869,18.066,5.981,33.020
-0.375,0.250,0.865,16.479,8.118,31.921
-0.399,0.240,0.865,15.686,12.024,31.311
-0.429,0.228,0.877,15.198,17.151,31.372
-0.459,0.205,0.892,16.663,23.254,33.081
-0.487,0.183,0.906,19.653,29.724,37.781
-0.481,0.186,0.892,23.499,34.119,45.105
-0.439,0.181,0.869,25.330,34.180,52.612
-0.391,0.163,0.855,25.024,29.175,58.838
-0.370,0.224,0.855,24.902,20.691,64.270
-0.331,0.216,0.841,18.982,11.108,62.805
-0.342,0.187,0.855,12.268,2.563,57.007
-0.391,0.179,0.866,9.766,-1.160,51.575
-0.432,0.163,0.860,8.484,3.540,46.631
-0.458,0.158,0.847,9.155,13.306,44.006
-0.465,0.155,0.822,9.277,24.109,44.373
-0.463,0.148,0.803,8.179,30.823,46.814
-0.454,0.149,0.802,5.981,32.166,50.720
-0.440,0.149,0.818,3.357,30.029,55.969
-0.421,0.135,0.839,0.427,25.879,61.707
-0.404,0.125,0.864,-2.441,21.729,67.566
-0.384,0.121,0.877,-4.517,18.311,72.388
-0.342,0.118,0.873,-6.287,15.747,73.975
-0.327,0.110,0.862,-7.629,12.695,72.327
-0.340,0.081,0.854,-8.179,10.193,68.237
-0.346,0.071,0.839,-7.874,11.108,65.430
-0.326,0.083,0.857,-7.568,15.381,66.040
-0.301,0.089,0.879,-7.751,19.897,65.918
-0.281,0.097,0.893,-8.484,23.132,64.819
-0.274,0.122,0.915,-8.606,25.146,64.209
-0.281,0.130,0.936,-8.423,27.100,63.110
-0.289,0.130,0.946,-8.667,28.809,61.890
-0.320,0.138,0.956,-8.301,29.541,60.791
-0.354,0.142,0.956,-7.568,30.579,60.303
-0.376,0.146,0.945,-6.409,31.860,60.974
-0.384,0.159,0.925,-5.127,32.776,63.049
-0.377,0.162,0.914,-5.066,32.166,65.918
-0.378,0.165,0.924,-5.432,29.968,68.420
-0.372,0.170,0.939,-5.493,28.442,71.045
-0.363,0.163,0.942,-5.676,29.114,74.463
-0.350,0.160,0.948,-5.188,30.579,78.125
-0.339,0.165,0.945,-3.723,32.288,81.909
-0.328,0.161,0.934,-2.991,33.691,85.205
-0.322,0.160,0.931,-2.563,34.241,87.891
-0.308,0.165,0.927,-1.465,34.912,90.698
-0.286,0.178,0.919,-0.793,36.011,92.773
-0.266,0.187,0.912,-1.526,35.889,94.177
-0.234,0.186,0.917,-3.296,35.156,95.337
-0.207,0.178,0.934,-5.066,33.142,96.130
-0.187,0.176,0.961,-7.385,29.846,97.107
-0.169,0.177,0.983,-7.996,26.550,97.351
-0.173,0.175,1.008,-8.545,23.804,96.558
-0.189,0.181,1.049,-6.775,23.193,94.788
-1.349,1.210,0.785,-64.941,-85.571,-312.805
-1.437,1.104,0.845,-71.350,-109.863,-277.710
-1.483,1.011,0.876,-72.205,-124.695,-239.929
-1.504,0.964,0.897,-64.819,-131.042,-200.745
-1.502,0.911,0.925,-55.847,-130.615,-166.748
-1.493,0.829,0.927,-46.997,-125.122,-139.832
-1.446,0.747,0.887,-37.170,-112.427,-116.699
-1.398,0.686,0.848,-28.137,-104.126,-94.788
-1.333,0.594,0.804,-23.071,-97.595,-75.073
-1.244,0.511,0.787,-25.635,-92.590,-54.443
-1.154,0.425,0.765,-31.921,-89.600,-33.752
-1.054,0.390,0.754,-36.987,-88.867,-13.062
-0.983,0.370,0.778,-43.030,-91.064,0.977
-0.880,0.282,0.802,-49.744,-89.111,10.193
-0.786,0.217,0.833,-47.852,-79.956,18.005
-0.722,0.256,0.876,-39.673,-65.552,23.315
-0.673,0.246,0.913,-32.227,-47.668,24.414
-0.616,0.218,0.949,-26.794,-31.128,24.048
-0.564,0.237,0.951,-18.799,-14.282,26.306
-0.495,0.244,0.937,-11.780,-4.517,28.503
-0.436,0.249,0.943,-7.324,-2.075,30.457
-0.392,0.262,0.948,-5.188,-2.563,31.250
-0.366,0.267,0.954,-4.272,-3.784,30.273
-0.336,0.256,0.949,-3.296,-3.845,27.710
-0.314,0.241,0.953,-2.441,-2.441,25.024
-0.305,0.243,0.961,-0.366,0.000,23.560
-0.306,0.237,0.965,2.075,3.113,21.606
-0.318,0.231,0.963,4.578,6.104,20.203
-0.329,0.227,0.945,7.019,9.399,20.447
-0.344,0.214,0.914,9.216,12.390,22.278
-0.335,0.208,0.887,10.742,13.184,26.062
-0.318,0.212,0.872,10.437,11.169,31.555
-0.303,0.212,0.860,7.751,6.592,36.865
-0.280,0.214,0.859,4.456,2.136,41.138
-0.225,0.212,0.860,2.075,-0.488,43.579
-0.208,0.286,0.877,0.671,-2.563,43.457
-0.202,0.251,0.891,-4.150,-4.456,36.621
-0.235,0.212,0.920,-7.019,-3.479,28.809
-0.257,0.216,0.913,-4.517,2.075,25.879
-0.251,0.219,0.903,-3.662,8.179,24.902
-0.244,0.220,0.919,-2.563,9.888,24.658
-0.282,0.222,0.918,-1.892,8.179,24.170
-0.294,0.220,0.904,0.916,7.629,24.170
-0.311,0.227,0.909,2.991,3.845,23.804
-0.324,0.230,0.920,3.174,3.113,25.330
-0.343,0.241,0.940,2.563,4.822,27.832
-0.370,0.221,0.939,2.930,8.606,29.419
-0.370,0.216,0.927,0.244,12.512,32.959
-0.390,0.214,0.912,-1.038,15.198,38.025
-0.392,0.217,0.903,0.061,16.541,42.786
-0.373,0.224,0.894,1.343,17.029,46.875
-0.340,0.234,0.890,1.709,15.442,48.706
-0.334,0.230,0.892,1.953,12.085,47.668
-0.352,0.220,0.906,2.502,8.606,45.044
-0.374,0.208,0.942,3.906,8.545,43.518
-0.376,0.204,0.959,5.676,13.000,44.373
-0.365,0.213,0.951,8.362,18.494,45.227
-0.365,0.212,0.929,10.132,21.729,45.410
-0.388,0.202,0.920,11.475,22.827,45.288
-0.419,0.185,0.918,12.817,23.682,46.631
-0.441,0.173,0.907,14.038,25.146,49.866
-0.458,0.166,0.901,14.832,26.550,54.871
-0.474,0.154,0.906,15.198,28.259,61.707
-0.452,0.146,0.899,15.442,29.602,69.641
-0.417,0.152,0.884,14.893,28.931,77.271
-0.380,0.148,0.881,12.573,25.452,83.557
-0.349,0.148,0.894,10.071,20.386,88.013
-0.323,0.139,0.908,7.141,16.785,90.393
-0.313,0.147,0.927,4.883,15.625,90.942
-0.309,0.111,0.936,3.113,17.517,90.149
-0.316,0.112,0.943,4.883,21.729,86.670
-0.331,0.135,0.938,9.460,29.358,83.801
-0.345,0.125,0.923,11.353,37.781,80.627
-0.363,0.140,0.900,13.062,45.837,78.979
-0.356,0.114,0.864,12.634,52.246,79.590
-0.339,0.120,0.840,12.451,53.772,80.200
-0.321,0.125,0.807,10.315,49.927,81.665
-0.294,0.118,0.807,4.639,41.199,83.313
-0.261,0.102,0.812,-1.709,29.846,85.266
-0.250,0.109,0.844,-5.920,19.409,87.341
-0.235,0.106,0.881,-10.925,12.756,88.440
-0.234,0.111,0.919,-13.855,11.780,88.074
-0.232,0.081,0.960,-14.465,15.930,86.609
-0.226,0.083,0.971,-11.108,23.071,84.167
-0.222,0.107,0.953,-5.676,31.128,81.909
-0.222,0.104,0.927,-2.991,36.743,77.637
-0.244,0.104,0.916,-0.977,39.124,73.730
-0.262,0.106,0.905,0.244,40.527,71.899
-0.266,0.124,0.897,-0.122,41.504,73.364
-0.229,0.114,0.882,-2.258,40.527,75.806
-0.228,0.119,0.908,-4.150,36.682,82.153
-0.205,0.130,0.923,-5.127,32.227,87.463
-0.199,0.137,0.944,-5.249,28.809,90.515
-0.180,0.135,0.967,-5.493,27.405,94.116
-0.163,0.131,0.981,-5.127,27.649,97.656
-0.145,0.126,0.992,-3.723,28.625,100.525
-0.124,0.134,0.988,-1.343,29.358,102.234
-0.098,0.140,0.980,-0.061,29.602,101.257
-0.065,0.151,0.970,1.221,28.564,100.098
-0.041,0.156,0.973,1.221,25.818,97.900
1.849,0.574,0.970,22.400,-18.921,-222.290
1.890,0.611,0.921,27.588,-26.672,-255.981
1.945,0.593,0.845,30.945,-32.410,-293.274
1.857,0.636,0.791,37.842,-33.447,-331.055
1.705,0.762,0.669,37.659,-29.663,-372.925
1.572,0.783,0.528,25.269,-25.879,-422.852
1.408,0.915,0.405,9.155,-29.236,-472.656
1.164,1.039,0.327,-4.456,-38.696,-496.582
0.859,1.149,0.315,-17.151,-45.227,-506.653
0.434,1.282,0.466,-28.198,-44.983,-512.146
-0.024,1.349,0.719,-38.147,-33.569,-501.648
-0.398,1.340,0.940,-46.021,-17.273,-471.863
-0.653,1.316,1.102,-47.913,-9.705,-429.321
-0.852,1.307,1.163,-44.983,-16.724,-383.545
-0.989,1.297,1.161,-40.955,-37.842,-339.661
-1.064,1.252,1.144,-32.776,-66.101,-299.744
-1.052,1.255,1.030,-20.508,-92.529,-263.367
-1.055,1.243,0.994,-16.968,-109.863,-228.149
-1.096,1.232,0.920,-5.859,-118.958,-204.163
-1.140,1.224,0.838,3.479,-108.887,-185.059
-1.216,1.155,0.784,4.089,-86.426,-168.152
-1.255,1.082,0.743,2.441,-60.059,-151.672
-1.274,0.997,0.754,-3.174,-42.542,-133.484
-1.301,0.916,0.791,-12.390,-38.208,-113.281
-1.321,0.853,0.843,-24.658,-40.405,-92.102
-1.347,0.759,0.895,-32.532,-40.283,-68.787
-1.320,0.679,0.937,-32.227,-40.405,-48.828
-1.281,0.599,0.947,-26.245,-45.410,-36.377
-1.226,0.496,0.921,-18.311,-47.668,-22.461
-1.183,0.428,0.869,-9.460,-46.753,-7.629
-1.086,0.368,0.805,-4.944,-46.448,3.601
-1.014,0.309,0.775,-3.601,-47.119,13.855
-0.923,0.273,0.778,-3.052,-46.509,23.682
-0.857,0.243,0.793,-5.737,-43.518,31.738
-0.790,0.246,0.827,-7.751,-34.973,40.039
-0.724,0.237,0.856,-9.399,-24.353,46.204
-0.660,0.229,0.866,-9.949,-15.259,49.805
-0.623,0.251,0.895,-8.057,-9.277,52.429
-0.570,0.224,0.908,-7.263,-5.737,51.758
-0.543,0.231,0.912,-4.883,-4.822,52.368
-0.504,0.214,0.905,-2.563,-5.554,53.589
-0.443,0.190,0.904,-0.854,-7.446,55.420
-0.405,0.208,0.928,2.502,-10.925,58.167
-0.372,0.208,0.944,4.456,-12.817,59.937
-0.333,0.213,0.942,5.676,-12.024,60.608
-0.299,0.187,0.921,5.249,-10.681,60.425
-0.258,0.198,0.903,5.127,-9.827,59.753
-0.221,0.186,0.881,3.601,-8.606,59.265
-0.196,0.194,0.882,0.549,-8.667,56.824
-0.202,0.196,0.881,-3.418,-8.301,53.772
-0.186,0.185,0.906,-9.521,-6.348,50.842
-0.204,0.185,0.939,-10.986,-3.113,46.692
-0.232,0.190,0.954,-12.512,1.770,42.786
-0.245,0.204,0.954,-16.724,6.287,39.063
-0.292,0.180,0.930,-20.081,9.644,35.828
-0.309,0.182,0.918,-18.860,11.292,35.461
-0.356,0.193,0.919,-15.503,11.108,37.231
-0.389,0.200,0.911,-12.939,12.085,41.016
-0.411,0.199,0.890,-12.512,13.855,46.082
-0.426,0.174,0.875,-12.878,14.221,51.941
-0.402,0.158,0.877,-10.071,14.160,59.937
-0.387,0.201,0.887,-2.991,15.869,70.679
-0.350,0.247,0.887,0.183,18.372,77.942
-0.330,0.235,0.890,-3.540,19.287,78.552
-0.324,0.228,0.901,-6.714,19.348,77.087
-0.312,0.233,0.930,-7.874,20.081,74.341
-0.315,0.233,0.966,-7.690,21.484,70.679
-0.345,0.231,0.989,-6.348,23.621,66.040
-0.380,0.226,0.998,-4.028,27.771,62.622
-0.425,0.244,1.003,-2.502,32.410,59.937
-0.458,0.219,0.964,-2.747,37.354,56.580
-0.475,0.204,0.917,-0.671,41.260,58.167
-0.477,0.202,0.865,1.465,42.419,63.232
-0.465,0.192,0.820,1.038,39.795,69.763
-0.431,0.179,0.805,-1.709,33.081,77.759
-0.400,0.154,0.831,-4.028,23.071,86.487
-0.368,0.127,0.874,-3.540,13.489,94.482
-0.363,0.142,0.924,0.061,8.057,100.525
-0.355,0.165,0.964,2.441,8.728,103.699
-0.344,0.156,0.986,2.197,14.832,104.431
-0.327,0.156,1.006,3.784,24.170,105.408
-0.300,0.143,0.986,4.700,34.302,107.361
-0.269,0.176,0.985,5.493,42.175,110.168
-0.275,0.197,0.970,2.441,45.898,113.098
-0.245,0.178,0.987,-0.916,45.654,113.098
-0.241,0.179,1.004,-3.662,42.480,113.770
-0.208,0.195,0.963,-4.211,38.330,113.831
-0.177,0.216,0.946,-1.892,31.677,111.877
-0.254,0.213,0.952,-2.686,23.071,106.140
-0.288,0.202,0.949,-2.014,17.151,102.905
-0.291,0.181,0.929,1.038,17.517,102.905
-0.294,0.182,0.899,5.310,19.714,103.394
-0.285,0.190,0.864,8.667,23.499,107.056
-0.266,0.189,0.823,8.789,27.222,115.662
-0.240,0.173,0.796,5.798,29.907,123.718
-0.203,0.164,0.785,1.770,31.860,130.066
-0.158,0.167,0.780,-1.221,34.180,138.000
-0.108,0.192,0.797,-2.747,37.231,144.897
-0.076,0.219,0.835,-5.371,39.429,146.790
-0.052,0.218,0.870,-7.690,40.100,142.334
-1.284,1.248,0.716,-49.561,-71.167,-305.420
-1.404,1.226,0.688,-47.913,-85.754,-270.874
-1.517,1.206,0.702,-47.363,-95.276,-233.521
-1.598,1.195,0.741,-47.485,-99.854,-196.777
-1.646,1.158,0.805,-48.462,-96.375,-161.682
-1.635,1.080,0.868,-52.856,-86.243,-129.639
-1.622,1.004,0.929,-56.091,-72.937,-100.220
-1.605,0.936,0.964,-53.162,-58.289,-71.838
-1.564,0.851,0.968,-48.035,-46.265,-46.326
-1.465,0.747,0.978,-40.466,-40.222,-22.705
-1.363,0.636,0.961,-32.227,-41.382,-3.296
-1.266,0.541,0.950,-26.855,-46.204,18.188
-1.138,0.463,0.932,-18.799,-51.453,37.903
-0.977,0.423,0.915,-10.254,-55.603,54.932
-0.842,0.383,0.915,-3.418,-57.312,65.613
-0.750,0.351,0.926,-0.916,-56.885,69.153
-0.646,0.306,0.928,-1.343,-49.438,69.946
-0.567,0.284,0.926,-6.287,-39.551,68.481
-0.517,0.271,0.923,-9.216,-24.780,66.467
-0.473,0.259,0.930,-7.874,-11.414,62.195
-0.431,0.242,0.939,-4.822,-1.831,57.922
-0.386,0.242,0.952,-0.854,4.639,56.946
-0.343,0.243,0.966,4.456,7.812,57.678
-0.287,0.237,0.972,8.911,6.592,58.838
-0.236,0.209,0.971,11.597,0.305,60.242
-0.165,0.198,0.977,11.780,-8.789,61.523
-0.119,0.194,0.973,9.705,-18.921,62.134
-0.086,0.179,0.973,6.714,-25.757,59.937
-0.073,0.173,0.967,4.700,-27.527,55.176
-0.065,0.170,0.959,3.967,-24.414,47.546
-0.082,0.141,0.943,4.272,-17.212,38.818
-0.105,0.155,0.925,6.897,-7.507,30.884
-0.143,0.163,0.911,8.667,3.296,24.902
-0.163,0.156,0.895,8.911,11.475,20.691
-0.182,0.158,0.873,9.338,14.099,18.799
-0.194,0.155,0.845,8.362,11.658,18.860
-0.196,0.159,0.828,6.348,5.615,20.691
-0.203,0.157,0.826,3.113,-1.648,22.339
-0.202,0.152,0.832,-0.061,-6.775,23.560
-0.196,0.157,0.844,-0.732,-7.568,22.827
-0.202,0.178,0.877,-4.333,-7.812,22.217
-0.224,0.178,0.900,-7.202,-4.883,19.409
-0.259,0.177,0.915,-6.348,0.122,15.808
-0.293,0.196,0.927,-3.479,5.859,14.160
-0.327,0.199,0.937,0.000,10.254,14.099
-0.349,0.193,0.939,3.967,12.512,15.808
-0.359,0.206,0.932,7.385,13.000,20.142
-0.349,0.206,0.935,9.766,11.719,23.926
-0.351,0.207,0.932,9.521,9.216,26.306
-0.360,0.210,0.937,9.399,6.592,27.893
-0.379,0.216,0.948,9.277,5.188,28.137
-0.380,0.223,0.942,9.460,5.615,26.855
-0.414,0.220,0.940,9.583,6.836,24.536
-0.451,0.209,0.937,10.315,9.521,22.827
-0.476,0.200,0.931,11.841,13.977,24.353
-0.481,0.193,0.921,12.329,17.944,28.687
-0.480,0.187,0.917,12.268,18.433,34.119
-0.474,0.179,0.916,12.146,15.991,39.978
-0.471,0.169,0.930,11.963,12.695,46.021
-0.496,0.174,0.943,12.878,10.132,52.124
-0.509,0.155,0.957,14.282,10.620,57.434
-0.519,0.116,0.972,14.587,15.259,62.134
-0.523,0.131,0.956,18.066,22.522,68.787
-0.517,0.156,0.942,21.545,30.823,75.256
-0.450,0.141,0.902,20.325,37.109,77.881
-0.421,0.166,0.896,18.921,36.194,78.552
-0.422,0.155,0.894,17.273,28.809,74.829
-0.419,0.143,0.889,14.893,20.203,71.716
-0.411,0.137,0.878,11.108,12.573,69.824
-0.437,0.125,0.893,7.568,5.920,68.726
-0.451,0.129,0.900,5.615,3.540,70.190
-0.456,0.113,0.898,3.906,5.432,73.669
-0.450,0.115,0.905,3.235,8.789,77.515
-0.458,0.120,0.908,4.578,13.245,81.421
-0.484,0.097,0.915,5.188,18.372,84.778
-0.500,0.080,0.913,7.690,23.254,88.623
-0.505,0.071,0.893,12.573,28.625,94.849
-0.480,0.074,0.849,15.076,33.264,102.722
-0.404,0.108,0.827,13.977,34.729,110.535
-0.312,0.099,0.782,6.592,30.273,114.441
-0.249,0.118,0.798,-0.793,18.555,113.953
-0.242,0.123,0.865,-9.277,6.104,112.488
-0.253,0.109,0.922,-18.066,-0.549,109.314
-0.240,0.058,0.962,-22.766,0.549,106.445
-0.276,0.067,0.992,-18.555,7.080,107.117
-0.314,0.076,0.989,-10.620,18.005,106.323
-0.347,0.078,0.977,-3.296,30.579,104.797
-0.355,0.056,0.947,3.723,42.908,107.117
-0.342,0.070,0.906,10.498,52.490,113.525
-0.289,0.096,0.859,13.489,57.495,122.437
-0.194,0.114,0.816,8.972,55.237,131.409
-0.114,0.113,0.811,1.160,43.274,137.085
-0.056,0.111,0.834,-7.263,26.001,137.695
-0.041,0.087,0.888,-15.503,9.338,133.911
-0.051,0.072,0.927,-20.020,-1.953,127.136
-0.069,0.082,0.969,-18.860,-3.845,120.911
-0.074,0.075,0.981,-15.198,1.953,113.220
-0.081,0.063,0.982,-8.850,13.489,107.483
-0.081,0.084,0.967,-0.610,25.513,101.685
-0.069,0.093,0.934,3.540,36.316,96.191
1.485,0.691,0.926,-1.099,-33.264,-406.616
1.222,0.772,0.823,8.179,-57.129,-440.735
0.845,0.852,0.765,16.785,-78.735,-467.590
0.461,0.876,0.768,19.592,-86.426,-481.934
0.090,0.914,0.794,21.729,-77.820,-477.844
-0.213,1.014,0.761,25.085,-61.584,-459.290
-0.485,1.122,0.692,26.306,-46.570,-432.983
-0.746,1.186,0.600,23.132,-39.673,-401.794
-0.972,1.226,0.512,18.921,-44.556,-366.028
-1.130,1.278,0.449,15.564,-59.875,-325.073
-1.249,1.330,0.435,10.803,-79.895,-282.593
-1.330,1.329,0.468,4.395,-95.581,-241.333
-1.355,1.322,0.522,-2.197,-102.295,-202.271
-1.336,1.300,0.623,-10.498,-100.037,-169.861
-1.346,1.265,0.734,-13.977,-93.262,-145.142
-1.332,1.216,0.783,-12.573,-79.224,-127.686
-1.366,1.156,0.819,-10.803,-62.561,-113.647
-1.412,1.066,0.820,-9.460,-47.119,-101.074
-1.438,0.927,0.801,-9.216,-37.170,-89.111
-1.420,0.769,0.783,-8.972,-32.043,-72.449
-1.398,0.661,0.753,-6.104,-32.288,-50.720
-1.330,0.550,0.738,-4.944,-36.316,-29.175
-1.265,0.439,0.727,-5.859,-43.457,-11.841
-1.183,0.358,0.714,-8.606,-45.959,5.432
-1.087,0.302,0.719,-11.658,-43.640,20.935
-0.978,0.263,0.751,-14.648,-38.757,32.227
-0.862,0.217,0.788,-16.357,-32.410,39.490
-0.759,0.204,0.837,-18.066,-28.625,42.603
-0.688,0.198,0.880,-17.822,-23.437,43.091
-0.638,0.194,0.935,-13.916,-18.066,41.077
-0.577,0.187,0.963,-10.620,-12.695,37.537
-0.529,0.205,0.992,-7.629,-7.080,34.790
-0.497,0.213,1.009,-6.409,-3.906,33.081
-0.484,0.230,1.029,-2.686,-2.197,31.494
-0.465,0.208,1.011,1.648,-0.488,29.785
-0.441,0.212,0.973,7.629,0.549,30.579
-0.414,0.210,0.934,12.085,-0.488,32.227
-0.387,0.195,0.898,13.794,-2.502,34.302
-0.360,0.189,0.875,13.916,-4.883,36.438
-0.331,0.202,0.866,13.733,-6.592,37.598
-0.324,0.194,0.853,11.719,-6.226,36.133
-0.328,0.170,0.842,9.155,-3.052,33.325
-0.338,0.151,0.827,8.057,2.380,31.738
-0.317,0.139,0.812,6.592,7.324,31.860
-0.272,0.146,0.817,4.822,8.057,32.776
-0.252,0.142,0.857,2.991,3.906,31.677
-0.277,0.156,0.891,1.892,-0.427,29.358
-0.275,0.141,0.883,0.732,-1.160,26.428
-0.284,0.139,0.892,0.122,0.916,23.743
-0.287,0.165,0.899,0.427,3.357,21.790
-0.321,0.155,0.908,-0.793,5.615,18.616
-0.362,0.140,0.906,-0.122,8.179,15.991
-0.388,0.136,0.887,2.441,10.315,16.174
-0.390,0.136,0.862,3.540,10.681,18.860
-0.394,0.141,0.857,1.526,7.629,22.888
-0.390,0.142,0.885,0.000,5.005,27.588
-0.383,0.144,0.902,0.549,1.587,30.579
-0.375,0.159,0.920,0.854,-0.732,32.898
-0.380,0.165,0.942,0.854,-0.732,33.875
-0.400,0.171,0.951,1.953,2.991,33.386
-0.432,0.175,0.962,4.944,8.728,32.410
-0.467,0.190,0.941,7.141,15.808,31.189
-0.491,0.182,0.904,7.507,22.278,30.151
-0.494,0.168,0.873,7.629,26.062,31.372
-0.489,0.168,0.849,7.507,26.306,35.156
-0.485,0.158,0.848,4.883,22.217,39.917
-0.474,0.142,0.863,0.916,16.113,45.593
-0.462,0.138,0.881,-2.014,9.827,51.147
-0.440,0.142,0.898,-4.211,4.456,55.298
-0.398,0.149,0.910,-5.554,1.587,56.580
-0.378,0.153,0.923,-5.371,0.305,54.077
-0.387,0.133,0.933,-4.211,0.916,48.462
-0.406,0.105,0.924,-1.221,5.737,43.030
-0.405,0.107,0.897,0.000,14.038,41.748
-0.398,0.104,0.869,0.793,20.996,40.894
-0.404,0.089,0.856,1.038,23.499,41.077
-0.404,0.077,0.842,0.427,22.095,43.335
-0.396,0.075,0.836,-0.977,18.066,47.180
-0.393,0.076,0.843,-3.174,13.000,50.659
-0.400,0.072,0.850,-5.066,10.376,53.650
-0.404,0.065,0.859,-6.042,10.864,55.969
-0.401,0.075,0.862,-5.188,14.587,58.411
-0.384,0.083,0.868,-4.944,18.494,59.631
-0.371,0.081,0.871,-4.395,20.630,58.960
-0.373,0.065,0.875,-3.906,21.118,57.861
-0.364,0.055,0.883,-3.052,20.447,58.350
-0.345,0.063,0.878,-3.662,19.897,60.486
-0.324,0.062,0.876,-6.470,18.311,62.195
-0.313,0.062,0.879,-8.789,16.418,62.988
-0.316,0.064,0.891,-10.071,15.869,63.110
-0.340,0.053,0.886,-11.475,17.517,62.622
-0.368,0.060,0.882,-11.108,20.386,61.035
-0.407,0.078,0.875,-9.216,25.513,59.998
-0.453,0.080,0.870,-7.629,32.349,59.570
-0.466,0.069,0.856,-6.104,39.734,61.707
-0.458,0.079,0.840,-4.761,45.349,67.200
-0.413,0.095,0.832,-5.249,46.448,74.158
-0.346,0.107,0.817,-8.606,42.175,80.139
-0.298,0.104,0.834,-14.160,31.128,83.923
-0.264,0.097,0.873,-19.653,17.761,85.999
1.768,0.444,1.102,-0.061,-74.219,-119.629
1.745,0.519,1.156,-0.916,-73.303,-167.725
1.696,0.590,1.194,3.601,-66.162,-217.407
1.594,0.687,1.183,15.930,-54.382,-267.517
1.488,0.714,1.055,27.649,-42.114,-315.552
1.221,0.883,1.018,43.457,-34.668,-357.666
0.806,0.964,1.000,52.063,-26.672,-394.104
0.540,0.892,0.921,48.889,-13.977,-421.509
0.301,0.848,0.831,46.814,-4.944,-432.007
0.069,0.942,0.729,48.096,-3.723,-431.213
-0.174,0.969,0.579,40.344,-11.597,-432.251
-0.415,0.972,0.497,36.560,-29.602,-428.772
-0.662,0.987,0.449,31.799,-46.387,-416.687
-0.888,0.977,0.417,24.414,-56.946,-396.790
-1.066,0.995,0.396,17.883,-59.387,-370.972
-1.214,0.997,0.370,8.179,-55.481,-340.393
-1.347,0.997,0.354,-5.310,-50.537,-307.800
-1.449,1.051,0.409,-17.639,-47.241,-272.705
-1.560,1.082,0.508,-27.954,-45.471,-236.755
-1.603,1.071,0.598,-39.856,-40.955,-199.768
-1.593,1.062,0.686,-50.293,-38.330,-164.307
-1.602,1.052,0.786,-51.697,-37.842,-132.080
-1.585,0.978,0.830,-57.007,-40.466,-104.492
-1.530,0.893,0.871,-57.922,-35.706,-74.707
-1.420,0.889,0.893,-53.955,-33.630,-45.471
-1.332,0.776,0.924,-44.739,-33.325,-27.893
-1.248,0.688,0.945,-38.269,-36.255,-13.245
-1.174,0.585,0.941,-36.133,-39.612,2.869
-1.084,0.477,0.926,-31.250,-43.274,15.015
-0.996,0.401,0.909,-26.489,-45.410,26.978
-0.916,0.338,0.893,-25.513,-45.837,37.598
-0.826,0.259,0.879,-29.175,-44.556,46.021
-0.717,0.216,0.888,-29.968,-41.809,53.345
-0.658,0.213,0.927,-28.381,-41.138,57.251
-0.608,0.185,0.956,-27.832,-32.166,58.044
-0.543,0.184,0.961,-24.719,-21.790,55.908
-0.486,0.202,0.983,-21.484,-12.756,52.002
-0.444,0.208,0.998,-19.226,-4.822,47.119
-0.420,0.219,1.001,-17.578,1.465,42.725
-0.384,0.222,1.001,-12.268,5.615,39.978
-0.354,0.240,1.001,-3.784,6.592,40.344
-0.314,0.252,0.993,1.892,5.188,41.382
-0.281,0.255,0.988,4.517,1.465,41.687
-0.271,0.252,0.983,6.165,-2.075,40.833
-0.255,0.245,0.969,7.751,-3.052,39.551
-0.239,0.247,0.946,8.423,-1.587,38.086
-0.212,0.235,0.922,5.981,0.427,35.706
-0.209,0.226,0.922,3.418,1.343,32.959
-0.214,0.212,0.919,1.892,2.441,29.968
-0.215,0.195,0.909,0.183,4.272,27.588
-0.214,0.185,0.899,-1.038,5.371,26.001
-0.223,0.185,0.888,-2.136,3.784,24.414
-0.231,0.184,0.888,-2.869,1.221,22.827
-0.266,0.192,0.877,-3.174,-0.427,21.667
-0.256,0.192,0.886,-3.601,-0.854,20.752
-0.282,0.200,0.894,-3.357,2.502,19.897
-0.293,0.202,0.877,0.488,7.446,17.822
-0.311,0.196,0.877,1.404,8.728,15.808
-0.318,0.188,0.871,0.732,9.094,17.151
-0.309,0.205,0.869,-1.343,7.202,20.325
-0.288,0.201,0.879,-3.540,1.953,22.766
-0.279,0.211,0.899,-9.766,-4.639,23.865
-0.289,0.218,0.944,-13.916,-8.789,25.635
-0.314,0.221,0.990,-12.390,-8.545,25.085
-0.344,0.216,1.018,-7.446,-4.578,23.254
-0.385,0.222,1.020,0.305,1.892,21.301
-0.433,0.230,0.992,9.155,9.277,19.287
-0.485,0.220,0.954,15.991,14.587,18.860
-0.534,0.211,0.910,20.447,17.761,21.301
-0.560,0.218,0.865,23.254,20.203,26.611
-0.581,0.218,0.842,23.621,20.325,33.569
-0.580,0.204,0.834,21.606,19.104,42.114
-0.568,0.195,0.836,19.348,17.456,52.063
-0.552,0.184,0.850,17.090,15.808,62.622
-0.521,0.175,0.866,15.259,15.991,72.449
-0.484,0.172,0.870,12.512,16.968,80.322
-0.454,0.173,0.877,9.277,18.372,84.717
-0.435,0.172,0.881,7.019,20.081,85.815
-0.409,0.182,0.871,5.615,22.034,84.229
-0.399,0.181,0.860,4.578,22.644,79.224
-0.424,0.172,0.861,4.700,21.790,71.899
-0.463,0.162,0.866,5.249,23.010,66.956
-0.484,0.148,0.864,5.554,26.611,65.552
-0.485,0.142,0.851,5.493,30.273,67.200
-0.476,0.142,0.845,4.211,32.166,71.106
-0.469,0.139,0.850,1.709,30.884,75.745
-0.456,0.130,0.864,-1.831,27.527,81.299
-0.445,0.124,0.883,-4.456,23.682,86.792
-0.443,0.123,0.911,-5.859,20.813,91.858
-0.416,0.126,0.928,-5.737,20.386,95.459
-0.393,0.123,0.934,-4.395,21.545,96.252
-0.363,0.111,0.925,-2.136,22.339,95.398
-0.341,0.116,0.926,0.488,21.851,94.238
-0.316,0.116,0.925,1.770,20.508,93.018
-0.295,0.119,0.919,1.587,19.409,91.797
-0.288,0.121,0.920,1.038,18.494,90.271
-0.293,0.116,0.930,0.732,19.775,88.745
-0.303,0.119,0.936,1.404,23.743,88.074
-0.323,0.120,0.935,2.625,28.809,88.013
-0.345,0.112,0.925,4.822,33.875,88.501
1.890,0.281,1.400,17.822,-59.448,-89.600
1.956,0.435,1.490,30.334,-78.735,-153.748
1.880,0.353,1.479,35.706,-97.046,-233.276
1.728,0.381,1.425,46.875,-103.882,-298.706
1.525,0.405,1.264,52.490,-99.304,-349.182
1.284,0.442,1.103,53.223,-90.698,-386.292
1.020,0.509,0.979,52.734,-83.008,-409.302
0.737,0.595,0.884,49.133,-75.256,-419.800
0.449,0.659,0.792,44.678,-69.336,-420.410
0.150,0.683,0.732,39.307,-67.383,-413.330
-0.201,0.674,0.741,37.659,-65.552,-397.461
-0.457,0.678,0.708,43.030,-56.213,-371.094
-0.586,0.784,0.588,51.147,-43.030,-335.327
-0.673,0.869,0.474,52.246,-40.100,-299.500
-0.735,0.894,0.386,41.565,-48.950,-270.020
-0.748,0.937,0.368,28.564,-60.608,-244.812
-0.799,0.985,0.402,18.188,-66.406,-225.525
-0.870,1.001,0.420,7.629,-58.228,-211.182
-0.924,1.000,0.452,0.244,-39.917,-198.242
-1.008,1.002,0.479,-2.014,-22.278,-187.439
-1.127,0.995,0.513,-5.005,-12.329,-175.659
-1.274,0.966,0.556,-13.794,-14.282,-160.950
-1.364,0.844,0.610,-25.269,-26.489,-142.212
-1.366,0.737,0.646,-29.907,-40.771,-114.502
-1.327,0.701,0.647,-27.283,-52.551,-86.426
-1.270,0.676,0.638,-26.428,-55.786,-63.110
-1.240,0.586,0.640,-18.005,-52.368,-49.500
-1.245,0.500,0.647,-7.629,-43.640,-40.588
-1.210,0.405,0.632,-6.348,-28.320,-29.053
-1.145,0.350,0.603,-5.310,-12.634,-14.587
-1.066,0.319,0.596,-7.629,-5.005,-3.174
-1.027,0.277,0.635,-15.991,-7.568,4.761
-0.986,0.232,0.703,-23.926,-11.292,12.085
-0.950,0.188,0.765,-31.921,-12.329,19.714
-0.883,0.230,0.833,-41.077,-5.432,25.513
-0.836,0.269,0.872,-40.100,4.761,26.062
-0.797,0.275,0.901,-33.997,13.245,31.311
-0.761,0.266,0.937,-25.146,19.043,39.856
-0.708,0.261,0.949,-18.250,22.827,43.640
-0.653,0.252,0.968,-12.085,24.658,46.265
-0.617,0.234,0.982,-7.080,23.743,49.622
-0.573,0.242,0.984,-2.075,20.142,53.528
-0.501,0.266,0.980,0.000,16.235,58.289
-0.436,0.299,1.000,0.305,10.559,59.082
-0.396,0.287,1.022,-2.014,3.906,55.237
-0.373,0.268,1.039,-3.784,-0.305,49.133
-0.366,0.229,1.047,-3.845,0.061,45.410
-0.347,0.216,1.039,-0.488,5.249,44.373
-0.344,0.215,1.019,2.014,10.986,43.884
-0.354,0.187,0.999,3.479,15.076,43.213
-0.369,0.171,0.971,4.700,17.578,44.312
-0.380,0.163,0.939,5.554,18.494,46.692
-0.378,0.170,0.908,5.493,17.944,49.744
-0.354,0.176,0.883,3.784,16.541,52.307
-0.336,0.181,0.875,1.709,14.099,53.162
-0.332,0.178,0.877,0.244,11.047,52.307
-0.336,0.198,0.892,-1.343,8.667,51.758
-0.331,0.182,0.894,-4.822,8.118,49.927
-0.330,0.166,0.908,-5.676,9.644,48.401
-0.343,0.167,0.915,-2.075,10.803,46.997
-0.336,0.160,0.904,-0.061,13.306,45.227
-0.346,0.152,0.904,-0.793,13.245,45.105
-0.355,0.136,0.897,-1.709,11.841,45.471
-0.338,0.133,0.883,-3.418,10.193,47.913
-0.291,0.137,0.884,-6.653,6.653,50.598
-0.280,0.125,0.901,-9.766,1.099,51.453
-0.278,0.107,0.916,-11.414,-3.784,50.842
-0.278,0.094,0.925,-10.925,-5.005,50.110
-0.276,0.092,0.937,-8.667,-2.808,49.744
-0.288,0.093,0.957,-4.700,1.526,48.584
-0.297,0.079,0.954,-0.305,6.714,46.204
-0.316,0.065,0.936,4.089,11.902,43.701
-0.330,0.070,0.902,8.484,16.357,42.664
-0.327,0.089,0.873,10.742,19.531,42.664
-0.325,0.097,0.865,10.254,21.606,42.725
-0.334,0.092,0.866,8.484,22.400,42.236
-0.340,0.077,0.865,6.836,22.827,42.358
-0.348,0.066,0.858,5.493,22.705,43.640
-0.339,0.069,0.852,3.906,22.095,45.898
-0.312,0.082,0.850,1.160,20.569,48.462
-0.308,0.080,0.871,-2.869,15.869,49.072
-0.315,0.070,0.884,-5.615,11.047,47.913
-0.330,0.053,0.891,-7.141,8.789,47.058
-0.345,0.059,0.896,-7.690,8.789,46.875
-0.353,0.072,0.918,-7.812,10.742,46.875
-0.354,0.078,0.931,-7.935,13.855,46.265
-0.374,0.089,0.942,-6.592,15.991,44.434
-0.406,0.093,0.949,-3.479,18.616,42.664
-0.435,0.082,0.943,-0.061,22.888,43.091
-0.440,0.082,0.929,2.380,26.978,45.898
-0.445,0.085,0.913,3.845,28.687,49.866
-0.452,0.087,0.898,4.395,27.710,54.382
-0.452,0.086,0.887,3.296,25.208,59.143
-0.448,0.082,0.856,0.610,22.644,63.293
-0.434,0.074,0.859,-3.235,19.653,67.200
-0.418,0.089,0.870,-5.127,15.869,70.984
-0.395,0.090,0.875,-7.874,14.282,72.571
-0.392,0.093,0.903,-10.132,14.221,74.036
-0.398,0.089,0.938,-10.864,15.808,74.768
-0.383,0.075,0.956,-10.071,19.409,76.843
1.490,0.479,1.106,33.081,-41.382,-207.214
1.451,0.605,1.032,38.391,-53.406,-254.944
1.363,0.711,0.947,43.579,-62.378,-307.556
1.103,0.812,0.840,48.218,-66.101,-362.000
0.777,0.872,0.682,49.866,-58.350,-411.499
0.481,0.953,0.528,42.480,-35.278,-452.576
0.218,0.946,0.381,28.076,-5.615,-486.328
-0.085,1.051,0.278,16.541,24.658,-515.625
-0.446,1.153,0.213,2.625,49.316,-530.640
-0.893,1.170,0.261,-19.287,61.157,-520.691
-1.332,1.147,0.385,-40.588,59.692,-475.952
-1.741,1.116,0.550,-56.885,39.673,-413.696
-1.854,1.115,0.693,-65.369,2.075,-338.501
-1.788,1.193,0.812,-65.979,-47.180,-258.240
-1.670,1.274,0.922,-65.796,-100.952,-190.674
-1.581,1.247,1.033,-65.613,-145.996,-148.193
-1.527,1.127,1.100,-55.237,-162.598,-125.732
-1.518,1.053,1.063,-30.518,-143.005,-108.582
-1.494,0.967,0.927,-8.667,-93.811,-90.088
-1.501,0.914,0.738,10.803,-46.753,-75.562
-1.500,0.795,0.614,21.301,-20.630,-58.167
-1.437,0.652,0.554,20.325,-16.541,-38.391
-1.325,0.546,0.577,6.653,-29.297,-12.207
-1.213,0.451,0.646,-11.108,-47.363,12.756
-1.058,0.392,0.708,-27.710,-59.021,33.142
-0.897,0.361,0.779,-39.490,-64.148,45.837
-0.783,0.317,0.868,-47.607,-63.843,50.354
-0.716,0.324,0.946,-46.814,-53.101,49.866
-0.677,0.282,0.962,-40.283,-33.264,46.997
-0.637,0.262,0.949,-28.137,-13.672,42.908
-0.580,0.283,0.921,-17.822,-0.122,41.321
-0.498,0.279,0.907,-12.817,5.798,40.161
-0.478,0.243,0.911,-9.705,5.737,37.598
-0.496,0.246,0.930,-3.540,4.456,37.415
-0.466,0.209,0.919,-0.366,5.615,37.964
-0.424,0.209,0.894,2.075,6.897,41.687
-0.388,0.249,0.906,2.808,5.920,44.922
-0.367,0.227,0.924,-0.366,4.639,43.762
-0.368,0.217,0.937,0.183,4.333,43.640
-0.356,0.214,0.926,0.610,6.226,44.678
-0.315,0.221,0.924,-0.061,8.118,45.776
-0.290,0.220,0.932,-0.549,9.094,45.654
-0.297,0.200,0.947,-0.244,9.644,43.945
-0.301,0.188,0.944,0.977,11.169,42.603
-0.296,0.193,0.937,1.892,13.367,42.236
-0.307,0.193,0.928,2.747,15.564,41.687
-0.327,0.192,0.916,3.174,17.151,41.565
-0.350,0.199,0.898,3.845,17.700,42.358
-0.374,0.223,0.875,3.113,17.761,43.762
-0.385,0.226,0.838,-0.854,17.090,43.884
-0.377,0.217,0.824,-3.845,14.404,43.884
-0.405,0.213,0.826,-4.822,9.583,44.678
-0.426,0.208,0.835,-5.554,6.592,46.997
-0.423,0.212,0.846,-6.409,4.822,50.537
-0.411,0.221,0.866,-8.118,3.357,54.321
-0.413,0.226,0.887,-9.827,2.441,56.763
-0.429,0.227,0.901,-9.949,2.563,58.044
-0.452,0.223,0.904,-8.545,5.066,59.326
-0.475,0.228,0.910,-6.165,9.888,61.829
-0.490,0.227,0.895,-4.272,14.465,63.782
-0.493,0.226,0.875,-1.953,17.883,65.613
-0.476,0.219,0.852,0.244,19.348,67.505
-0.466,0.224,0.838,1.953,18.066,69.275
-0.474,0.220,0.836,2.808,15.564,70.557
-0.480,0.224,0.844,1.465,13.794,71.533
-0.468,0.172,0.834,-1.404,15.015,73.364
-0.457,0.188,0.844,0.671,17.395,76.233
-0.447,0.198,0.835,2.686,21.057,78.491
-0.408,0.196,0.828,0.244,25.024,79.529
-0.391,0.167,0.813,-3.784,26.733,79.407
-0.387,0.169,0.826,-4.944,26.489,79.102
-0.387,0.160,0.846,-6.592,27.039,79.895
-0.350,0.155,0.861,-9.216,28.381,82.336
-0.322,0.150,0.880,-11.841,28.137,84.412
-0.306,0.148,0.900,-12.878,25.940,85.022
-0.297,0.139,0.922,-14.099,24.048,85.327
-0.284,0.126,0.941,-14.832,23.193,86.243
-0.273,0.124,0.964,-13.855,22.217,87.158
-0.270,0.121,0.986,-11.719,20.996,87.341
-0.275,0.123,0.998,-8.850,20.630,86.731
-0.274,0.123,0.990,-5.981,22.034,85.266
-0.282,0.129,0.978,-3.479,23.926,83.740
-0.292,0.129,0.956,-1.343,25.940,82.092
-0.299,0.144,0.935,-1.404,27.771,81.116
-0.313,0.117,0.907,-3.540,27.893,80.688
-0.324,0.127,0.898,-2.502,26.489,81.421
-0.346,0.142,0.896,-2.441,24.902,84.045
-0.302,0.106,0.900,-5.737,23.193,86.914
-0.289,0.083,0.917,-6.226,21.240,93.384
-0.252,0.106,0.930,-3.479,20.264,99.976
-0.212,0.104,0.944,-4.028,18.738,103.149
-0.189,0.093,0.973,-4.578,17.395,104.797
-0.174,0.091,1.001,-3.418,17.883,105.042
-0.149,0.102,1.001,-2.258,20.081,103.516
-0.132,0.100,0.993,-1.465,22.095,99.060
-0.144,0.093,0.986,-0.488,24.292,93.933
-0.153,0.083,0.972,0.671,28.137,89.478
-0.141,0.092,0.956,1.221,32.227,86.243
-0.145,0.067,0.933,-0.122,33.630,84.106
-0.164,0.069,0.936,0.793,32.227,82.214
1.493,0.202,1.446,38.635,-66.040,-124.695
1.508,0.192,1.396,57.556,-35.767,-169.861
1.515,0.227,1.306,73.914,-2.136,-214.355
1.461,0.347,1.155,85.693,26.062,-260.254
1.296,0.528,1.032,85.815,40.344,-312.683
1.079,0.654,0.870,84.900,44.922,-369.446
0.793,0.815,0.710,85.754,47.729,-415.710
0.518,0.965,0.522,75.317,50.598,-459.290
0.196,1.109,0.406,57.983,57.007,-491.394
-0.166,1.226,0.382,39.063,63.232,-507.324
-0.547,1.259,0.381,13.733,64.270,-506.958
-0.989,1.290,0.427,-14.526,52.246,-482.239
-1.367,1.306,0.476,-41.565,19.775,-433.105
-1.593,1.309,0.571,-63.293,-32.654,-367.737
-1.649,1.344,0.734,-73.914,-89.905,-296.936
-1.595,1.368,0.875,-74.829,-131.287,-235.718
-1.502,1.341,0.990,-72.571,-147.217,-191.345
-1.495,1.297,1.042,-59.570,-136.658,-164.673
-1.477,1.194,0.983,-41.870,-103.333,-150.452
-1.500,1.034,0.842,-25.879,-60.974,-137.085
-1.512,0.896,0.652,-15.442,-28.809,-116.211
-1.505,0.731,0.550,-13.428,-23.499,-88.745
-1.439,0.611,0.561,-17.517,-38.757,-55.786
-1.306,0.504,0.599,-19.836,-57.800,-27.039
-1.133,0.471,0.663,-27.771,-71.472,-6.104
-1.006,0.362,0.765,-33.447,-66.040,11.963
-0.916,0.339,0.814,-34.180,-52.063,17.273
-0.810,0.269,0.852,-31.494,-32.166,16.052
-0.793,0.263,0.861,-27.893,-13.428,14.648
-0.776,0.258,0.854,-23.560,1.343,13.000
-0.774,0.255,0.843,-19.836,5.981,15.564
-0.719,0.267,0.853,-17.212,0.732,23.315
-0.688,0.269,0.874,-14.709,-7.996,31.738
-0.678,0.282,0.905,-9.949,-14.648,39.307
-0.639,0.289,0.915,-5.371,-15.381,46.326
-0.595,0.317,0.914,-2.747,-11.108,49.255
-0.517,0.299,0.900,0.977,-4.883,49.744
-0.528,0.307,0.904,6.714,1.282,49.011
-0.510,0.257,0.887,9.155,6.897,47.424
-0.481,0.230,0.865,12.451,11.353,49.316
-0.410,0.256,0.853,15.869,13.794,54.565
-0.320,0.246,0.846,18.433,12.207,57.556
-0.317,0.258,0.880,19.470,8.057,56.030
-0.306,0.225,0.903,13.916,5.371,49.683
-0.299,0.185,0.916,7.629,6.531,44.495
-0.297,0.190,0.915,2.991,10.193,42.786
-0.318,0.175,0.919,-1.465,13.062,40.833
-0.342,0.161,0.908,-3.235,13.916,40.161
-0.359,0.151,0.896,-4.700,13.184,41.931
-0.366,0.155,0.895,-5.127,11.169,45.898
-0.371,0.166,0.903,-4.211,8.728,49.866
-0.374,0.167,0.912,-2.625,7.935,53.650
-0.374,0.175,0.908,0.122,8.301,56.274
-0.333,0.187,0.894,4.517,11.353,58.472
-0.315,0.215,0.888,7.019,12.268,59.143
-0.325,0.233,0.883,4.395,9.338,56.213
-0.358,0.197,0.873,-1.282,4.211,52.002
-0.389,0.193,0.871,-3.174,1.526,51.636
-0.376,0.221,0.864,-5.371,2.441,54.016
-0.372,0.218,0.885,-9.033,2.808,54.993
-0.380,0.214,0.907,-9.888,2.747,54.077
-0.403,0.213,0.924,-8.606,4.700,53.406
-0.414,0.208,0.932,-7.202,8.484,52.734
-0.418,0.193,0.936,-5.066,12.878,52.246
-0.422,0.179,0.932,-1.892,17.029,52.856
-0.430,0.160,0.921,1.587,19.897,54.932
-0.425,0.142,0.909,4.211,20.691,58.228
-0.394,0.142,0.906,5.188,19.287,63.110
-0.345,0.141,0.901,4.272,14.160,67.139
-0.324,0.130,0.910,2.136,4.761,67.749
-0.329,0.119,0.927,1.099,-4.028,66.101
-0.341,0.112,0.944,1.526,-6.470,64.087
-0.351,0.113,0.953,2.930,-2.075,61.829
-0.367,0.121,0.954,4.639,7.324,58.777
-0.399,0.121,0.939,7.141,18.433,54.626
-0.435,0.110,0.905,10.498,29.053,52.124
-0.460,0.099,0.873,13.123,37.476,53.406
-0.468,0.081,0.844,12.878,40.527,58.411
-0.458,0.071,0.820,11.597,37.170,65.918
-0.420,0.078,0.800,9.094,29.785,74.524
-0.350,0.093,0.787,4.395,19.043,81.421
-0.312,0.088,0.798,-1.831,5.371,84.229
-0.297,0.075,0.831,-7.385,-7.751,84.106
-0.277,0.076,0.884,-10.376,-15.442,82.642
-0.275,0.072,0.924,-11.963,-15.137,78.552
-0.277,0.066,0.945,-10.742,-7.996,72.083
-0.282,0.059,0.939,-8.423,4.761,65.979
-0.294,0.059,0.916,-6.409,18.799,60.486
-0.327,0.053,0.899,-3.113,29.541,55.847
-0.353,0.052,0.873,0.671,37.048,53.284
-0.373,0.054,0.846,2.991,41.138,53.833
-0.392,0.061,0.837,3.357,40.833,57.068
-0.390,0.070,0.830,2.319,37.292,62.439
-0.368,0.072,0.832,0.427,31.677,68.115
-0.350,0.075,0.841,-1.831,25.391,73.730
-0.318,0.085,0.843,-4.517,20.081,78.430
-0.260,0.093,0.843,-8.057,15.625,80.811
-0.231,0.089,0.852,-12.207,9.277,79.834
-0.216,0.083,0.873,-15.442,3.601,76.477
-0.204,0.076,0.898,-17.578,2.319,73.059
1.846,-0.089,1.552,31.250,-36.560,-79.651
2.016,-0.092,1.495,35.034,-27.649,-126.892
2.065,-0.016,1.418,44.983,-19.470,-176.270
2.029,0.057,1.240,51.697,-15.076,-228.882
1.913,0.201,1.051,55.969,-14.771,-281.067
1.675,0.375,0.814,58.350,-13.550,-325.378
1.353,0.510,0.594,61.523,-9.888,-375.488
1.056,0.684,0.392,61.462,3.113,-411.072
0.716,0.934,0.255,53.223,23.193,-430.420
0.429,1.068,0.178,33.386,44.983,-443.787
0.082,1.182,0.211,5.310,57.556,-448.792
-0.399,1.335,0.374,-14.709,56.274,-436.279
-0.908,1.475,0.584,-25.513,42.175,-410.156
-1.310,1.526,0.718,-35.706,21.118,-372.009
-1.575,1.593,0.801,-39.673,-8.362,-320.740
-1.737,1.677,0.859,-37.659,-45.715,-267.151
-1.785,1.687,0.907,-31.616,-81.177,-219.543
-1.776,1.605,0.903,-23.926,-103.516,-179.749
-1.741,1.510,0.852,-15.442,-109.253,-145.508
-1.701,1.393,0.795,-8.423,-100.952,-116.150
-1.651,1.227,0.756,-5.615,-86.487,-91.064
-1.640,1.028,0.722,-4.944,-69.580,-69.763
-1.641,0.855,0.677,-10.559,-54.626,-45.227
-1.563,0.655,0.649,-13.855,-43.091,-20.569
-1.468,0.492,0.632,-9.277,-44.189,-4.211
-1.347,0.357,0.638,-5.981,-52.185,10.010
-1.211,0.241,0.655,-10.559,-57.495,25.208
-1.070,0.166,0.688,-18.494,-56.763,39.551
-0.946,0.143,0.721,-26.672,-49.500,52.246
-0.854,0.107,0.783,-32.104,-37.109,60.425
-0.771,0.099,0.831,-36.987,-20.996,65.674
-0.693,0.088,0.867,-39.673,-4.089,68.604
-0.618,0.062,0.905,-39.490,6.470,67.383
-0.560,0.054,0.957,-37.354,9.705,64.819
-0.500,0.066,0.994,-35.706,7.996,64.514
-0.440,0.077,1.039,-35.339,2.747,67.383
-0.366,0.095,1.081,-34.973,-2.625,67.078
-0.334,0.130,1.130,-30.640,-6.470,64.697
-0.316,0.141,1.147,-24.109,-6.897,59.631
-0.318,0.142,1.139,-15.198,-3.235,54.443
-0.308,0.148,1.106,-4.578,2.869,50.720
-0.290,0.161,1.073,5.249,8.423,47.729
-0.296,0.153,1.029,13.306,11.780,45.227
-0.313,0.146,0.979,19.653,13.367,44.006
-0.312,0.137,0.914,21.973,14.648,45.105
-0.287,0.138,0.858,21.240,15.015,48.035
-0.267,0.138,0.828,18.127,12.451,50.232
-0.272,0.122,0.812,12.390,7.568,49.805
-0.285,0.099,0.803,6.042,3.174,48.523
-0.297,0.099,0.813,1.953,1.770,47.607
-0.289,0.115,0.841,-0.977,4.700,47.424
-0.301,0.116,0.879,-3.906,10.437,45.959
-0.338,0.115,0.908,-4.272,16.052,43.457
-0.370,0.113,0.912,-3.052,21.851,42.480
-0.386,0.124,0.897,-1.587,26.184,44.189
-0.398,0.128,0.885,-1.770,25.696,46.936
-0.392,0.137,0.884,-1.038,20.447,50.537
-0.406,0.128,0.878,-0.061,12.939,52.551
-0.410,0.137,0.859,-3.235,5.249,56.519
-0.400,0.138,0.840,-10.132,-1.343,59.631
-0.402,0.134,0.845,-15.869,-5.859,60.486
-0.425,0.124,0.862,-19.348,-6.653,60.791
-0.436,0.113,0.881,-20.386,-2.930,61.401
-0.438,0.117,0.903,-19.653,3.906,62.622
-0.433,0.121,0.922,-17.883,11.536,63.171
-0.440,0.119,0.941,-14.954,18.127,63.110
-0.442,0.119,0.951,-10.498,23.376,64.697
-0.415,0.126,0.951,-6.958,26.672,68.298
-0.374,0.137,0.936,-4.639,24.353,72.083
-0.361,0.135,0.952,-3.906,16.357,73.975
-0.372,0.128,0.964,-4.150,7.568,74.341
-0.397,0.120,0.969,-2.808,2.869,75.317
-0.400,0.118,0.961,-0.488,2.380,76.477
-0.398,0.111,0.947,2.014,5.432,76.599
-0.403,0.097,0.939,4.333,10.437,75.256
-0.411,0.088,0.926,8.179,18.555,74.524
-0.391,0.065,0.898,9.949,27.832,75.623
-0.370,0.051,0.875,10.315,34.241,78.552
-0.336,0.055,0.861,9.216,35.828,83.069
-0.291,0.058,0.852,5.249,32.593,86.792
-0.264,0.057,0.865,0.122,25.085,88.928
-0.260,0.047,0.891,-5.005,15.747,88.928
-0.276,0.036,0.923,-7.446,8.057,88.135
-0.287,0.031,0.946,-6.897,4.456,87.769
-0.307,0.029,0.955,-2.869,5.432,87.524
-0.312,0.040,0.954,2.502,10.071,87.280
-0.304,0.067,0.924,8.667,16.479,86.914
-0.269,0.045,0.877,11.780,22.217,86.182
-0.233,0.055,0.837,12.878,23.010,85.999
-0.223,0.060,0.808,11.658,19.531,84.961
-0.224,0.049,0.798,7.507,13.550,83.862
-0.220,0.036,0.796,1.770,8.240,84.106
-0.211,0.039,0.791,-4.456,5.005,85.327
-0.200,0.019,0.820,-11.047,2.869,86.853
-0.195,0.021,0.855,-15.137,1.953,87.891
-0.197,0.025,0.884,-15.259,4.211,88.440
-0.185,0.017,0.908,-14.893,8.240,88.257
-0.154,0.020,0.924,-12.146,13.062,88.196
-0.110,0.034,0.932,-9.827,16.968,88.379
-0.080,0.033,0.944,-9.399,17.700,86.487
1.742,0.220,1.371,30.334,-20.630,-109.741
1.755,0.283,1.357,40.588,-3.296,-162.048
1.730,0.294,1.287,52.429,17.578,-219.055
1.644,0.347,1.205,58.411,32.349,-269.958
1.477,0.402,1.070,64.331,33.813,-317.993
1.247,0.503,0.880,70.862,23.926,-364.624
0.992,0.559,0.680,66.833,6.836,-401.733
0.720,0.656,0.542,58.594,-7.629,-426.025
0.358,0.700,0.531,39.978,-17.090,-437.012
0.036,0.715,0.583,19.409,-22.766,-432.007
-0.244,0.779,0.651,8.667,-24.414,-411.804
-0.470,0.869,0.683,6.958,-27.039,-383.179
-0.621,0.970,0.692,2.991,-36.926,-352.844
-0.792,1.051,0.709,-1.648,-53.223,-323.059
-0.975,1.097,0.737,-3.723,-68.115,-298.157
-1.165,1.106,0.770,-3.906,-74.341,-275.757
-1.303,1.089,0.760,-1.831,-67.993,-250.732
-1.395,1.059,0.707,0.549,-55.664,-223.816
-1.474,1.055,0.619,2.258,-48.401,-196.655
-1.506,0.990,0.576,-0.366,-46.814,-166.809
-1.513,0.932,0.594,-8.301,-50.842,-137.024
-1.478,0.883,0.660,-15.747,-57.312,-110.657
-1.454,0.814,0.711,-20.935,-58.167,-91.492
-1.466,0.750,0.770,-22.095,-50.293,-72.998
-1.445,0.685,0.776,-17.151,-35.522,-57.190
-1.430,0.606,0.790,-7.324,-26.184,-45.044
-1.402,0.542,0.768,-2.197,-21.484,-32.104
-1.353,0.435,0.738,-7.812,-19.104,-14.771
-1.272,0.370,0.722,-14.343,-22.461,3.540
-1.172,0.339,0.725,-21.118,-27.283,21.912
-1.074,0.347,0.748,-29.602,-30.212,37.415
-0.960,0.304,0.778,-37.231,-28.198,45.898
-0.913,0.275,0.816,-43.335,-25.696,47.180
-0.865,0.265,0.843,-44.617,-13.611,52.856
-0.790,0.244,0.841,-41.748,0.671,57.983
-0.690,0.234,0.854,-37.598,9.888,61.768
-0.619,0.237,0.874,-33.936,10.559,62.744
-0.580,0.210,0.912,-30.212,7.874,63.721
-0.547,0.187,0.927,-24.048,5.981,65.979
-0.502,0.158,0.920,-16.357,4.639,69.580
-0.443,0.196,0.916,-9.277,3.723,74.463
-0.319,0.200,0.907,-7.935,2.808,75.500
-0.294,0.225,0.949,-6.470,1.038,71.899
-0.308,0.188,0.963,-4.944,2.502,63.721
-0.334,0.170,0.964,-1.526,9.338,56.580
-0.357,0.152,0.937,1.648,20.020,52.124
-0.383,0.157,0.897,4.578,29.602,51.514
-0.377,0.181,0.848,2.991,35.034,52.673
-0.389,0.166,0.846,-3.540,34.546,52.612
-0.401,0.175,0.858,-6.653,29.480,55.298
-0.392,0.173,0.865,-10.376,23.437,60.120
-0.359,0.177,0.882,-15.442,15.564,65.552
-0.335,0.181,0.914,-20.325,6.775,69.275
-0.319,0.183,0.952,-22.156,0.366,70.862
-0.310,0.179,0.988,-21.667,-1.465,70.740
-0.306,0.171,1.005,-18.005,0.427,70.007
-0.299,0.192,1.034,-11.414,5.371,68.604
-0.290,0.192,1.012,-9.277,10.986,64.636
-0.311,0.180,1.001,-6.958,14.465,59.082
-0.347,0.175,0.983,-2.563,16.785,54.993
-0.377,0.155,0.958,0.244,19.165,53.955
-0.383,0.152,0.933,2.136,20.813,56.763
-0.368,0.163,0.908,1.404,19.226,61.096
-0.373,0.156,0.912,-1.160,13.000,63.721
-0.391,0.155,0.926,-3.174,5.554,65.430
-0.406,0.162,0.946,-3.540,1.099,67.749
-0.407,0.164,0.969,-1.892,1.282,69.763
-0.412,0.176,0.976,2.991,5.737,70.313
-0.431,0.191,0.961,9.216,13.489,69.336
-0.458,0.196,0.928,15.320,23.193,68.176
-0.463,0.181,0.881,19.714,32.715,69.214
-0.422,0.177,0.837,20.752,39.001,73.608
-0.380,0.171,0.810,18.250,37.720,78.979
-0.345,0.154,0.799,11.719,28.320,83.008
-0.312,0.125,0.816,3.601,15.259,85.632
-0.290,0.092,0.858,-3.113,2.136,87.341
-0.281,0.060,0.911,-7.568,-6.836,87.891
-0.280,0.041,0.961,-8.057,-9.216,87.585
-0.280,0.043,0.983,-5.554,-5.615,85.571
-0.281,0.043,0.990,-1.282,2.563,82.092
-0.278,0.046,0.982,4.822,13.977,78.552
-0.274,0.058,0.959,10.620,25.452,76.111
-0.253,0.063,0.925,13.794,33.203,74.402
-0.242,0.056,0.906,13.611,33.569,73.242
-0.242,0.038,0.896,11.414,28.015,73.364
-0.238,0.016,0.899,9.277,20.142,74.768
-0.241,-0.001,0.914,8.667,13.062,76.050
-0.256,-0.002,0.927,10.132,9.827,76.782
-0.276,-0.008,0.919,12.695,11.658,76.782
-0.302,-0.014,0.905,16.235,17.517,76.843
-0.318,-0.020,0.878,19.409,25.269,78.186
-0.298,-0.034,0.842,20.386,32.593,81.299
-0.267,-0.042,0.821,19.531,36.316,85.571
-0.243,-0.048,0.816,16.846,35.645,91.187
-0.188,-0.060,0.802,11.902,31.677,96.802
-0.140,-0.050,0.815,6.470,23.499,100.708
-0.109,-0.062,0.841,0.549,14.160,102.844
-0.069,-0.058,0.883,-4.272,7.080,102.356
-0.062,-0.068,0.918,-6.592,3.052,98.206
-0.067,-0.090,0.944,-6.287,3.479,91.187
1.927,0.070,1.190,8.118,-43.884,-205.627
1.901,0.112,1.124,15.259,-38.147,-254.883
1.875,0.248,1.043,21.362,-24.475,-290.039
1.793,0.434,0.894,28.748,-9.888,-333.252
1.631,0.639,0.688,34.424,-5.554,-397.644
1.318,0.842,0.508,42.297,-0.427,-459.961
0.902,0.997,0.418,39.307,13.245,-502.380
0.440,1.081,0.461,20.203,36.743,-523.010
-0.057,1.136,0.578,-3.113,62.073,-521.667
-0.427,1.220,0.676,-20.081,79.102,-483.032
-0.721,1.333,0.749,-27.649,62.134,-432.007
-0.951,1.453,0.853,-32.288,6.775,-380.737
-1.150,1.491,1.003,-39.368,-59.021,-330.139
-1.272,1.454,1.106,-38.879,-108.643,-281.982
-1.320,1.374,1.050,-24.231,-124.573,-242.737
-1.344,1.349,0.884,-2.991,-114.990,-213.074
-1.399,1.284,0.703,10.925,-97.290,-189.941
-1.552,1.170,0.570,14.648,-80.261,-168.762
-1.598,1.030,0.442,13.000,-59.143,-142.944
-1.549,0.918,0.408,1.221,-49.316,-112.122
-1.490,0.820,0.500,-18.921,-57.739,-83.740
-1.485,0.672,0.642,-38.940,-66.284,-57.434
-1.421,0.576,0.738,-48.096,-62.134,-33.508
-1.344,0.504,0.773,-41.931,-49.133,-16.724
-1.239,0.445,0.807,-28.320,-39.246,-11.047
-1.155,0.373,0.805,-19.409,-31.860,-7.080
-1.114,0.327,0.812,-20.569,-24.841,2.380
-1.076,0.308,0.814,-24.902,-18.860,14.832
-1.017,0.289,0.812,-28.625,-14.099,26.672
-0.940,0.279,0.820,-28.687,-12.634,34.790
-0.869,0.292,0.846,-31.311,-12.085,42.480
-0.808,0.302,0.897,-33.813,-10.559,48.401
-0.775,0.302,0.956,-32.349,-8.423,50.842
-0.745,0.297,0.996,-26.306,-3.296,53.528
-0.699,0.296,1.003,-17.578,4.150,57.556
-0.656,0.281,1.014,-7.568,9.949,62.256
-0.609,0.279,1.000,1.099,10.986,66.895
-0.546,0.286,1.018,8.057,8.911,70.251
-0.508,0.295,1.023,11.475,5.798,71.472
-0.496,0.274,1.018,12.695,4.028,69.946
-0.479,0.263,0.985,12.939,4.822,68.298
-0.470,0.261,0.940,11.230,6.958,68.176
-0.476,0.228,0.912,9.094,8.667,68.359
-0.498,0.201,0.898,8.301,9.949,70.984
-0.520,0.188,0.893,6.348,10.742,76.599
-0.521,0.187,0.895,4.517,10.803,83.557
-0.509,0.174,0.905,4.822,10.742,90.820
-0.518,0.216,0.907,8.118,12.695,97.656
-0.465,0.237,0.891,11.047,18.372,100.830
-0.438,0.278,0.866,8.301,23.010,98.938
-0.448,0.233,0.861,3.784,23.315,92.102
-0.467,0.189,0.853,1.892,21.912,88.989
-0.457,0.193,0.829,1.282,21.179,92.590
-0.428,0.197,0.810,-2.747,18.616,97.290
-0.398,0.186,0.817,-7.446,13.489,101.624
-0.366,0.192,0.833,-11.841,7.935,106.506
-0.357,0.176,0.844,-14.771,3.174,108.582
-0.348,0.166,0.864,-17.822,0.427,109.497
-0.335,0.166,0.880,-21.118,0.977,110.779
-0.325,0.173,0.896,-23.132,4.211,109.741
-0.326,0.167,0.902,-22.522,9.888,106.323
-0.339,0.155,0.896,-19.531,17.151,101.868
-0.341,0.160,0.875,-17.334,24.292,98.633
-0.328,0.136,0.860,-17.151,29.541,97.412
-0.313,0.122,0.853,-16.663,30.640,99.121
-0.291,0.121,0.857,-16.663,27.405,102.539
-0.257,0.123,0.863,-18.677,20.630,105.774
-0.233,0.121,0.873,-22.888,11.658,106.995
-0.223,0.111,0.899,-25.696,3.235,106.262
-0.225,0.105,0.930,-25.391,-0.916,104.004
-0.235,0.103,0.968,-21.851,1.587,99.976
-0.243,0.094,0.974,-15.442,11.108,94.788
-0.238,0.094,0.953,-8.057,24.841,89.355
-0.238,0.101,0.937,-1.099,37.964,86.121
-0.234,0.100,0.906,3.174,48.157,85.083
-0.207,0.085,0.866,2.319,52.612,85.999
-0.174,0.069,0.842,-1.526,49.011,88.318
-0.146,0.051,0.840,-7.446,38.574,91.064
-0.132,0.034,0.858,-13.367,24.902,93.628
-0.129,0.016,0.892,-18.860,12.268,95.337
-0.116,0.011,0.921,-21.973,5.005,96.008
-0.101,0.013,0.951,-22.888,2.258,94.299
-0.099,0.024,0.975,-21.240,3.540,90.027
-0.109,0.021,0.990,-16.541,10.193,84.045
-0.109,0.016,0.982,-10.437,21.667,78.613
-0.088,0.026,0.955,-5.981,34.363,75.867
-0.072,0.029,0.928,-3.906,42.542,72.876
-0.078,0.024,0.908,-3.296,44.006,69.031
