aX,aY,aZ,gX,gY,gZ
-1.745,0.897,0.769,-1.709,33.997,88.318
-2.026,1.049,0.634,8.606,65.186,109.802
-2.229,1.141,0.564,13.367,105.164,137.939
-2.258,1.176,0.480,11.230,144.348,172.974
-2.227,1.197,0.357,9.827,171.570,206.665
-2.105,1.173,0.271,5.188,176.758,238.403
-1.899,1.131,0.245,-1.282,165.955,271.484
-1.626,1.115,0.207,-6.104,149.353,301.941
-1.228,1.099,0.214,-6.470,132.751,326.233
-0.802,1.109,0.187,-6.104,124.023,347.717
-0.485,1.118,0.242,-7.935,119.934,361.938
-0.148,1.191,0.208,-15.381,119.019,367.187
0.121,1.142,0.180,-19.348,123.962,363.037
0.349,1.045,0.186,-30.884,121.948,360.107
0.636,0.971,0.193,-38.147,113.159,353.027
0.876,0.960,0.197,-43.518,102.295,342.285
1.078,0.870,0.286,-54.749,84.290,322.327
1.265,0.801,0.413,-64.758,71.594,303.955
1.477,0.780,0.536,-69.031,67.078,285.706
1.630,0.736,0.660,-69.580,65.430,260.681
1.711,0.691,0.768,-63.232,62.561,229.309
1.710,0.743,0.815,-48.523,59.937,197.510
1.722,0.761,0.895,-33.020,57.129,165.283
1.667,0.754,0.959,-26.855,57.434,139.709
1.571,0.789,0.946,-24.414,60.303,113.037
1.559,0.705,0.937,-15.015,82.336,86.853
1.460,0.677,0.939,-4.333,71.472,66.406
1.371,0.630,0.932,2.747,45.288,40.283
1.276,0.594,0.903,4.395,26.611,18.250
1.191,0.585,0.936,0.427,4.578,1.648
1.062,0.577,0.985,-2.258,-12.268,-8.789
1.030,0.591,1.014,-2.319,-18.372,-22.095
0.960,0.590,1.062,-5.554,-21.301,-34.668
0.871,0.575,1.046,-5.920,-11.597,-43.579
0.823,0.590,1.066,-5.615,0.244,-50.171
0.723,0.603,1.091,-4.517,8.179,-57.373
0.633,0.604,1.115,-0.549,15.808,-67.566
0.530,0.627,1.143,3.601,23.193,-77.515
0.456,0.634,1.169,13.489,29.297,-84.534
0.387,0.589,1.121,23.376,31.311,-91.675
0.347,0.565,1.068,34.912,23.437,-96.313
0.309,0.552,1.002,44.373,9.460,-92.041
0.290,0.515,0.928,44.922,-8.484,-87.463
0.268,0.497,0.879,25.269,-27.771,-85.632
0.262,0.446,0.877,10.132,-44.434,-81.787
0.282,0.492,0.878,12.329,-58.716,-79.407
0.253,0.500,0.861,11.108,-67.505,-85.388
0.206,0.536,0.871,0.427,-68.420,-94.055
0.157,0.473,0.870,-11.658,-61.157,-102.356
0.108,0.462,0.937,-5.920,-48.157,-108.337
0.085,0.432,0.992,-1.465,-29.968,-111.328
0.078,0.440,1.006,4.761,-11.902,-111.938
0.082,0.447,0.968,12.878,0.061,-112.244
0.121,0.588,0.996,20.203,5.554,-115.662
0.110,0.252,0.729,45.166,10.864,-131.165
0.121,0.396,0.849,30.823,1.587,-137.695
0.068,0.352,0.891,3.357,-20.203,-130.432
0.082,0.384,0.882,19.348,-24.231,-121.521
0.069,0.342,0.825,22.278,-30.151,-115.723
0.059,0.347,0.836,21.484,-36.804,-110.657
0.066,0.366,0.855,17.517,-45.593,-104.980
0.067,0.358,0.829,14.954,-49.500,-100.464
0.048,0.374,0.834,6.653,-52.185,-96.069
0.039,0.352,0.852,0.732,-53.406,-95.215
0.033,0.352,0.865,0.305,-50.781,-95.276
0.021,0.345,0.892,0.366,-44.128,-95.398
0.035,0.308,0.911,0.427,-34.607,-93.872
0.055,0.272,0.905,3.113,-24.780,-89.478
0.095,0.291,0.880,7.751,-18.555,-82.703
0.118,0.310,0.842,12.085,-16.846,-79.102
0.142,0.294,0.820,11.719,-21.240,-78.552
0.148,0.280,0.826,10.498,-29.663,-80.566
0.146,0.257,0.784,2.441,-36.194,-82.764
0.147,0.276,0.774,-13.977,-41.565,-83.557
0.107,0.287,0.767,-23.315,-45.166,-83.618
0.052,0.302,0.810,-26.367,-44.067,-83.191
0.014,0.330,0.855,-24.231,-39.368,-80.750
-0.011,0.335,0.906,-20.996,-33.569,-77.148
-0.022,0.344,0.945,-14.282,-29.480,-73.059
-0.020,0.337,0.971,-6.104,-28.687,-68.237
0.002,0.348,0.944,-2.747,-29.541,-63.354
0.022,0.350,0.916,-3.967,-33.752,-60.608
0.026,0.342,0.874,-10.132,-41.931,-61.279
0.044,0.329,0.865,-13.733,-51.331,-62.256
0.056,0.323,0.847,-17.700,-57.129,-62.988
0.090,0.307,0.845,-21.912,-59.875,-64.392
0.078,0.285,0.813,-21.423,-59.509,-66.223
0.074,0.308,0.822,-20.752,-55.115,-69.092
0.047,0.337,0.858,-19.836,-47.546,-72.937
-0.013,0.342,0.927,-20.020,-38.757,-75.378
-0.041,0.336,0.985,-14.465,-27.893,-74.829
-0.036,0.364,0.980,-5.981,-18.616,-70.984
-0.031,0.368,0.950,-0.244,-17.334,-68.115
-0.032,0.354,0.921,-0.366,-21.240,-66.345
-0.022,0.333,0.888,-1.892,-28.137,-65.613
-0.035,0.322,0.872,-3.784,-37.231,-65.125
-0.049,0.325,0.867,-5.432,-45.715,-63.965
-0.071,0.325,0.875,-9.033,-51.941,-61.523
-0.096,0.256,0.900,-13.733,-55.237,-61.279
-0.151,0.306,0.912,-15.503,-59.387,-62.683
-1.669,0.801,0.775,7.263,74.097,91.064
-1.858,0.857,0.687,18.982,94.543,100.159
-2.057,0.914,0.639,26.428,111.206,112.366
-2.118,0.923,0.555,27.527,126.953,136.719
-2.077,0.906,0.474,26.550,140.198,167.847
-1.955,0.864,0.373,26.489,146.790,199.890
-1.738,0.848,0.303,24.780,147.461,231.506
-1.463,0.845,0.268,20.935,144.775,260.803
-1.101,0.880,0.258,14.404,138.855,285.828
-0.764,0.932,0.284,3.845,127.686,301.331
-0.553,0.948,0.325,-6.897,119.629,304.565
-0.287,0.947,0.313,-13.916,125.549,303.833
-0.046,0.943,0.249,-17.822,138.062,299.377
0.161,0.929,0.215,-20.264,150.452,290.649
0.375,0.937,0.207,-20.569,162.048,283.203
0.556,0.943,0.224,-21.362,171.570,276.978
0.748,0.963,0.280,-21.606,177.429,270.691
1.024,0.976,0.347,-19.653,180.298,264.771
1.274,0.972,0.406,-18.799,175.232,255.981
1.461,0.946,0.484,-20.630,157.715,240.662
1.636,0.914,0.596,-21.179,133.240,223.389
1.750,0.916,0.707,-17.151,108.948,204.468
1.775,0.918,0.805,-10.681,89.905,179.504
1.773,0.882,0.870,-1.892,78.735,149.292
1.765,0.816,0.899,10.315,71.289,117.798
1.742,0.869,0.859,15.503,64.209,92.224
1.644,0.771,0.828,17.883,78.674,80.994
1.584,0.742,0.817,24.475,55.603,56.702
1.463,0.721,0.804,24.658,28.503,33.997
1.321,0.672,0.820,14.709,15.869,24.231
1.209,0.647,0.830,7.935,13.062,19.531
1.127,0.662,0.850,6.226,8.057,14.404
1.029,0.658,0.877,4.089,3.052,2.747
0.949,0.642,0.894,1.526,3.174,-8.972
0.878,0.632,0.906,1.831,3.967,-20.264
0.814,0.621,0.908,5.615,1.648,-33.203
0.756,0.629,0.899,9.338,-2.808,-47.424
0.648,0.563,0.908,10.925,-9.521,-66.895
0.578,0.560,0.907,8.118,-15.564,-80.017
0.504,0.556,0.889,1.831,-13.550,-78.430
0.468,0.526,0.876,-4.578,-14.954,-83.008
0.441,0.495,0.889,-8.118,-23.071,-91.125
0.375,0.486,0.917,-9.216,-31.372,-93.872
0.359,0.471,0.918,-9.399,-32.776,-90.576
0.325,0.454,0.917,-4.761,-36.682,-85.999
0.334,0.445,0.905,-2.563,-43.823,-87.341
0.328,0.432,0.896,-2.258,-46.936,-89.172
0.331,0.425,0.886,-1.526,-50.232,-92.529
0.337,0.417,0.866,-1.099,-52.856,-97.046
0.340,0.409,0.850,-1.831,-54.382,-102.356
0.318,0.410,0.847,-2.930,-55.481,-109.497
0.260,0.436,0.884,-3.479,-55.115,-115.662
0.215,0.442,0.934,-2.563,-51.880,-117.676
0.206,0.434,0.958,-1.282,-46.326,-115.112
0.205,0.435,0.962,1.404,-43.213,-110.657
0.205,0.439,0.951,4.272,-45.349,-106.201
0.193,0.427,0.929,5.493,-51.880,-101.563
0.173,0.407,0.899,5.432,-59.937,-96.252
0.158,0.396,0.863,5.737,-66.956,-92.346
0.172,0.391,0.830,5.371,-72.205,-91.064
0.166,0.380,0.807,2.930,-76.965,-92.712
0.143,0.363,0.799,0.305,-80.688,-97.290
0.120,0.360,0.793,-0.732,-80.994,-102.539
0.062,0.382,0.813,0.000,-76.843,-106.995
-0.004,0.417,0.848,0.122,-69.885,-110.229
-0.048,0.424,0.887,-1.892,-60.425,-110.779
-0.064,0.412,0.919,-3.235,-51.270,-106.201
-0.053,0.406,0.921,-1.343,-45.593,-98.572
-0.044,0.407,0.902,0.916,-45.288,-91.248
-0.061,0.415,0.882,2.380,-50.049,-85.938
-0.072,0.413,0.864,2.686,-55.847,-81.726
-0.071,0.406,0.837,1.831,-60.425,-77.454
-0.073,0.397,0.810,-0.549,-63.232,-72.998
-0.076,0.389,0.794,-4.456,-65.186,-69.275
-0.070,0.380,0.787,-8.850,-65.186,-66.833
-0.078,0.367,0.794,-14.160,-64.392,-66.284
-0.094,0.354,0.822,-17.944,-62.683,-67.261
-0.126,0.359,0.863,-18.188,-59.570,-68.787
-0.145,0.381,0.904,-15.381,-54.260,-68.665
-0.144,0.395,0.937,-11.475,-48.096,-66.956
-0.139,0.391,0.952,-7.568,-43.518,-64.514
-0.131,0.392,0.950,-4.578,-41.504,-61.646
-0.116,0.383,0.937,-2.625,-42.480,-59.631
-0.102,0.379,0.920,-1.282,-44.922,-58.838
-0.090,0.367,0.900,-2.808,-48.218,-56.213
-0.091,0.336,0.889,-5.981,-52.124,-54.382
-0.101,0.321,0.885,-7.629,-55.298,-54.016
-0.108,0.322,0.877,-8.911,-55.481,-54.382
-0.118,0.318,0.875,-10.620,-52.368,-56.274
-0.115,0.315,0.882,-12.878,-47.058,-58.533
-0.140,0.331,0.890,-14.526,-40.649,-61.218
-0.140,0.316,0.926,-13.855,-34.668,-65.857
-0.174,0.344,0.955,-13.611,-26.855,-67.749
-0.181,0.366,0.958,-11.719,-17.944,-66.650
-0.160,0.354,0.977,-11.108,-13.977,-63.660
-0.147,0.348,0.973,-12.756,-13.855,-60.425
-0.136,0.358,0.959,-11.230,-16.663,-57.739
-0.138,0.366,0.949,-10.803,-22.217,-55.420
-0.137,0.359,0.942,-10.803,-28.198,-53.894
-0.134,0.366,0.928,-10.681,-32.227,-51.697
-1.448,0.948,1.099,48.950,2.625,80.872
-1.607,0.990,1.044,58.655,3.906,108.276
-1.680,0.976,0.938,65.796,4.578,141.052
-1.699,0.933,0.841,65.918,0.061,174.500
-1.682,0.837,0.688,61.584,-0.122,204.651
-1.567,0.752,0.551,56.763,7.019,231.995
-1.427,0.677,0.417,48.828,19.897,258.362
-1.252,0.637,0.293,40.833,35.950,282.410
-1.076,0.636,0.239,27.710,52.612,304.565
-0.818,0.644,0.205,13.977,70.862,323.303
-0.524,0.668,0.180,2.625,87.585,336.487
-0.268,0.673,0.208,-9.949,99.365,343.323
-0.017,0.664,0.279,-19.653,107.056,343.567
0.207,0.686,0.338,-24.048,114.319,338.379
0.362,0.703,0.378,-29.358,121.948,327.087
0.440,0.685,0.423,-35.095,126.709,309.998
0.544,0.678,0.402,-35.522,130.981,291.809
0.664,0.692,0.347,-37.781,134.033,275.452
0.756,0.695,0.343,-45.105,131.775,257.568
0.822,0.707,0.383,-52.063,130.981,241.333
0.930,0.718,0.439,-58.533,135.498,227.539
1.057,0.735,0.506,-65.613,138.062,214.355
1.162,0.755,0.603,-73.669,132.690,197.388
1.200,0.760,0.755,-77.515,121.216,176.636
1.258,0.741,0.901,-75.867,114.441,158.813
1.273,0.792,0.945,-67.078,113.831,143.311
1.287,0.775,1.018,-59.814,106.323,117.126
1.277,0.725,1.065,-51.331,101.501,90.698
1.225,0.717,1.070,-44.189,96.680,68.359
1.205,0.682,1.001,-42.480,113.770,64.209
1.226,0.666,0.975,-24.353,96.375,39.673
1.172,0.601,0.978,-15.564,64.941,15.991
1.066,0.578,0.968,-16.724,43.335,7.935
0.993,0.557,0.950,-16.602,28.870,5.310
0.959,0.543,0.940,-15.259,14.343,0.000
0.900,0.545,0.951,-17.395,3.723,-5.615
0.807,0.553,0.981,-19.775,-2.380,-12.817
0.755,0.578,1.008,-20.020,-5.920,-20.691
0.695,0.577,1.034,-17.334,-9.094,-35.889
0.635,0.584,1.060,-13.550,-12.756,-53.528
0.498,0.630,1.104,-14.709,-10.925,-50.293
0.454,0.641,1.125,-14.526,-2.747,-55.298
0.451,0.622,1.095,-9.583,4.456,-70.190
0.429,0.606,1.067,-1.465,4.333,-83.435
0.410,0.601,1.028,5.371,1.099,-92.834
0.388,0.573,0.981,8.423,-1.831,-99.792
0.376,0.532,0.930,8.545,-5.554,-103.638
0.384,0.496,0.888,7.141,-12.207,-103.699
0.380,0.462,0.851,4.517,-23.132,-101.318
0.377,0.437,0.827,1.160,-37.781,-98.083
0.360,0.427,0.829,-2.441,-53.833,-94.055
0.347,0.432,0.870,-3.845,-68.298,-89.172
0.366,0.439,0.910,-0.488,-78.247,-85.144
0.394,0.446,0.927,5.066,-83.923,-83.496
0.405,0.468,0.937,11.169,-87.769,-84.473
0.399,0.484,0.939,18.127,-88.501,-89.600
0.406,0.485,0.921,25.940,-84.900,-97.900
0.387,0.459,0.890,32.227,-78.613,-106.628
0.355,0.425,0.853,36.194,-71.167,-115.051
0.316,0.405,0.814,37.476,-63.904,-121.826
0.286,0.379,0.784,34.729,-57.800,-125.732
0.262,0.347,0.758,29.907,-54.504,-128.723
0.239,0.326,0.747,23.804,-55.115,-129.150
0.204,0.308,0.742,17.212,-59.021,-126.770
0.169,0.289,0.753,10.193,-65.247,-123.718
0.164,0.293,0.772,5.188,-72.205,-119.629
0.146,0.316,0.795,1.709,-79.468,-115.784
0.116,0.329,0.834,0.122,-86.975,-113.342
0.088,0.332,0.871,1.892,-92.346,-110.779
0.075,0.334,0.890,5.493,-94.360,-108.093
0.059,0.330,0.890,10.376,-92.651,-106.445
0.040,0.329,0.870,15.198,-88.623,-106.384
0.019,0.336,0.843,18.066,-83.618,-107.910
-0.007,0.325,0.815,17.273,-77.515,-110.413
-0.031,0.304,0.795,12.634,-71.655,-114.075
-0.060,0.299,0.776,6.348,-66.895,-118.042
-0.118,0.315,0.760,-0.244,-62.622,-121.582
-0.181,0.329,0.764,-7.324,-58.167,-123.657
-0.227,0.343,0.782,-13.916,-52.856,-123.352
-0.259,0.362,0.821,-18.738,-46.021,-120.911
-0.287,0.371,0.879,-21.179,-39.063,-116.699
-0.269,0.372,0.923,-20.569,-33.142,-109.680
-0.240,0.373,0.934,-19.348,-30.518,-101.746
-0.223,0.373,0.932,-18.250,-34.607,-97.046
-0.233,0.367,0.938,-17.639,-42.664,-93.628
-0.233,0.346,0.942,-16.663,-49.866,-89.905
-0.226,0.342,0.926,-15.320,-54.016,-85.571
-0.230,0.344,0.897,-15.015,-55.237,-82.336
-0.251,0.345,0.874,-16.541,-55.298,-80.505
-0.278,0.352,0.865,-19.409,-53.284,-79.285
-0.310,0.369,0.871,-22.156,-47.791,-77.698
-0.328,0.385,0.894,-24.353,-39.673,-75.806
-0.328,0.377,0.936,-25.513,-30.273,-73.303
-0.332,0.401,0.976,-24.841,-20.386,-69.153
-0.337,0.384,1.002,-20.386,-12.756,-68.237
-0.309,0.380,1.001,-15.259,-8.789,-67.871
-0.308,0.383,1.000,-12.085,-9.094,-56.396
-0.294,0.378,0.994,-10.071,-9.277,-44.983
-0.278,0.369,0.983,-9.338,-9.766,-39.429
-0.255,0.373,0.966,-8.484,-11.108,-36.926
-1.506,0.849,0.696,44.495,54.932,117.249
-1.559,0.856,0.644,40.100,57.678,141.174
-1.537,0.869,0.641,36.743,59.753,166.931
-1.480,0.893,0.672,34.668,62.012,191.772
-1.417,0.900,0.728,33.936,67.017,213.379
-1.292,0.884,0.743,35.828,78.552,235.291
-1.102,0.878,0.697,40.466,91.736,255.737
-0.896,0.870,0.588,43.701,98.999,273.010
-0.699,0.840,0.488,41.504,98.633,286.438
-0.504,0.841,0.406,37.231,95.642,296.509
-0.340,0.874,0.375,30.518,93.872,305.298
-0.105,0.899,0.342,23.804,97.778,313.904
0.180,0.917,0.306,15.503,104.614,321.289
0.448,0.920,0.297,3.784,107.910,324.402
0.655,0.917,0.360,-10.620,107.666,323.364
0.904,0.873,0.440,-20.081,107.056,315.552
1.125,0.830,0.496,-22.705,108.948,303.955
1.291,0.786,0.544,-23.926,107.788,286.072
1.410,0.734,0.597,-23.315,104.980,261.841
1.488,0.712,0.634,-20.569,101.807,236.450
1.524,0.709,0.668,-17.578,95.642,210.144
1.536,0.748,0.709,-17.700,85.815,183.594
1.486,0.750,0.810,-21.667,73.364,155.762
1.452,0.738,0.895,-24.048,64.941,129.883
1.374,0.697,0.956,-19.470,60.364,107.117
1.426,0.761,0.933,-22.400,64.331,91.919
1.331,0.757,0.948,-15.442,74.402,78.064
1.300,0.731,0.986,-2.075,53.589,37.659
1.177,0.693,1.003,5.188,36.194,5.005
1.037,0.674,0.987,5.188,34.119,-8.972
0.916,0.631,0.972,5.737,31.982,-14.221
0.838,0.602,0.966,7.080,25.635,-20.691
0.767,0.575,0.937,6.104,20.508,-24.353
0.700,0.544,0.910,4.883,12.939,-27.100
0.630,0.524,0.893,5.005,2.197,-31.006
0.556,0.507,0.897,5.493,-7.996,-35.522
0.461,0.488,0.918,6.165,-15.137,-41.809
0.413,0.466,0.939,6.958,-18.677,-52.002
0.327,0.469,0.935,3.723,-11.719,-43.030
0.320,0.470,0.903,0.916,-2.747,-43.213
0.331,0.453,0.877,-1.343,0.793,-53.833
0.326,0.447,0.866,-2.502,-1.404,-63.110
0.304,0.439,0.875,-4.639,-4.639,-70.251
0.272,0.443,0.877,-6.531,-5.798,-75.562
0.250,0.434,0.894,-7.629,-6.348,-79.407
0.284,0.450,0.889,-9.277,-5.615,-77.637
0.283,0.440,0.885,-5.554,-8.972,-77.698
0.316,0.427,0.880,-5.249,-18.127,-84.534
0.320,0.412,0.883,-6.287,-25.513,-87.708
0.320,0.399,0.879,-5.249,-33.875,-89.783
0.351,0.406,0.873,-4.944,-41.931,-91.553
0.365,0.411,0.870,-7.202,-47.729,-93.933
0.363,0.420,0.874,-9.460,-51.147,-98.206
0.362,0.439,0.869,-10.620,-51.758,-101.624
0.356,0.438,0.875,-13.428,-51.697,-103.699
0.344,0.418,0.903,-16.113,-51.514,-105.713
0.309,0.407,0.932,-16.296,-50.293,-107.605
0.267,0.413,0.956,-13.306,-48.340,-109.192
0.243,0.416,0.973,-8.850,-46.143,-107.910
0.239,0.408,0.969,-4.272,-43.152,-104.004
0.240,0.398,0.947,-0.366,-41.931,-99.976
0.232,0.388,0.927,2.991,-44.739,-96.436
0.223,0.380,0.909,5.188,-50.842,-93.872
0.208,0.370,0.892,5.188,-58.228,-91.919
0.182,0.362,0.880,3.540,-65.430,-90.393
0.165,0.363,0.865,1.648,-71.594,-89.966
0.144,0.371,0.854,-0.977,-75.928,-90.942
0.101,0.377,0.859,-3.479,-77.515,-92.163
0.055,0.389,0.882,-4.883,-75.256,-91.675
0.016,0.400,0.905,-4.822,-68.542,-88.806
-0.001,0.391,0.923,-2.808,-58.960,-84.961
0.002,0.380,0.923,0.977,-49.744,-81.848
0.016,0.381,0.909,4.761,-43.762,-80.505
0.010,0.377,0.895,6.165,-42.542,-80.872
-0.009,0.360,0.888,6.531,-43.945,-81.909
-0.018,0.354,0.866,6.897,-45.593,-82.703
-0.024,0.349,0.840,6.042,-46.143,-81.970
-0.020,0.343,0.816,2.869,-46.509,-80.627
-0.014,0.332,0.802,-1.587,-47.607,-80.566
-0.033,0.333,0.815,-6.348,-48.828,-80.139
-0.055,0.323,0.836,-10.498,-48.401,-78.186
-0.063,0.312,0.858,-13.428,-46.082,-75.317
-0.059,0.320,0.880,-13.428,-43.640,-71.472
-0.059,0.344,0.898,-12.329,-41.992,-67.505
-0.076,0.351,0.915,-12.085,-41.504,-64.514
-0.081,0.350,0.924,-11.047,-41.382,-61.768
-0.064,0.356,0.911,-8.179,-40.649,-59.692
-0.056,0.350,0.897,-6.348,-40.344,-59.143
-0.053,0.344,0.887,-5.249,-39.124,-59.692
-0.049,0.340,0.871,-5.005,-36.011,-60.791
-0.038,0.332,0.857,-6.653,-31.555,-62.561
-0.027,0.312,0.846,-9.216,-26.611,-64.941
-0.027,0.296,0.845,-12.146,-22.583,-67.139
-0.042,0.294,0.854,-15.076,-19.714,-68.298
-0.056,0.303,0.882,-17.944,-18.250,-68.665
-0.054,0.306,0.913,-19.836,-17.090,-67.932
-0.045,0.328,0.930,-19.470,-16.907,-65.613
-0.069,0.354,0.953,-18.005,-18.738,-63.843
-0.096,0.363,0.973,-15.137,-20.691,-61.829
-0.108,0.364,0.969,-10.864,-20.691,-58.899
-1.260,1.341,1.045,25.391,82.581,15.747
-1.396,1.365,1.010,44.739,101.257,25.085
-1.526,1.327,0.918,65.491,108.826,41.199
-1.628,1.197,0.789,84.167,100.220,64.087
-1.659,1.063,0.660,100.952,80.811,93.018
-1.601,0.960,0.497,114.746,60.669,131.348
-1.456,0.903,0.353,119.507,45.898,174.316
-1.282,0.834,0.263,113.037,42.480,215.576
-1.065,0.809,0.210,101.746,52.063,252.991
-0.809,0.809,0.164,86.060,70.618,285.583
-0.560,0.785,0.151,66.040,95.520,312.378
-0.357,0.791,0.185,48.218,122.742,335.144
-0.136,0.802,0.229,36.438,146.851,353.210
0.091,0.809,0.270,28.198,164.368,365.662
0.320,0.801,0.304,23.315,174.866,374.207
0.658,0.804,0.316,20.935,176.147,379.822
0.947,0.801,0.357,16.724,161.743,377.136
1.102,0.791,0.436,13.794,133.484,361.511
1.253,0.744,0.522,11.475,108.093,339.844
1.416,0.768,0.564,9.583,97.229,319.946
1.534,0.792,0.622,5.859,95.093,291.931
1.582,0.734,0.710,0.977,100.281,252.014
1.589,0.744,0.745,1.465,115.051,214.661
1.578,0.727,0.756,1.221,130.554,180.603
1.564,0.716,0.760,-0.610,139.343,150.635
1.527,0.716,0.818,-2.075,136.536,128.052
1.505,0.703,0.817,-9.888,143.555,121.887
1.465,0.746,0.863,1.526,128.906,110.596
1.432,0.716,0.929,11.169,96.741,91.980
1.406,0.691,0.958,12.939,67.871,77.820
1.385,0.680,0.932,10.620,44.006,67.627
1.355,0.643,0.920,8.179,17.395,57.678
1.246,0.612,0.912,6.470,-6.714,44.861
1.183,0.581,0.890,1.953,-18.005,32.410
1.106,0.556,0.866,-0.977,-20.691,20.630
1.025,0.536,0.850,-2.441,-20.264,6.897
0.935,0.506,0.851,-1.953,-19.043,-9.766
0.835,0.472,0.876,-0.854,-17.822,-27.344
0.743,0.432,0.895,1.038,-16.602,-43.640
0.703,0.398,0.891,1.648,-17.029,-60.791
0.584,0.427,0.877,-2.258,-16.846,-52.429
0.523,0.409,0.855,-6.958,-16.113,-53.345
0.499,0.378,0.847,-7.690,-20.020,-63.477
0.454,0.359,0.853,-5.066,-25.879,-68.481
0.432,0.365,0.846,-3.174,-28.809,-69.153
0.381,0.351,0.856,1.038,-33.569,-72.327
0.360,0.348,0.864,2.197,-39.368,-80.505
0.366,0.349,0.864,1.770,-39.185,-85.327
0.356,0.368,0.863,2.197,-38.086,-89.661
0.353,0.389,0.861,2.136,-36.682,-96.130
0.351,0.394,0.863,0.732,-35.034,-101.074
0.349,0.396,0.856,-0.244,-33.875,-105.469
0.358,0.396,0.839,-2.380,-33.630,-108.459
0.337,0.373,0.836,-7.141,-35.706,-109.253
0.318,0.355,0.846,-12.085,-40.466,-108.032
0.304,0.343,0.853,-16.907,-47.241,-106.262
0.287,0.336,0.880,-22.156,-54.993,-103.455
0.274,0.335,0.912,-26.306,-63.049,-100.281
0.265,0.339,0.937,-27.405,-70.740,-98.450
0.243,0.347,0.948,-24.536,-76.843,-97.351
0.225,0.363,0.943,-19.653,-80.872,-96.802
0.240,0.370,0.934,-14.526,-82.275,-96.375
0.246,0.381,0.920,-9.521,-80.933,-95.947
0.239,0.391,0.899,-6.226,-77.271,-97.229
0.228,0.393,0.884,-4.944,-71.838,-100.647
0.216,0.387,0.872,-4.578,-65.674,-104.614
0.186,0.384,0.859,-4.456,-59.875,-109.375
0.145,0.388,0.861,-4.822,-55.542,-114.258
0.084,0.392,0.886,-4.944,-52.063,-116.943
0.038,0.391,0.914,-3.418,-47.852,-115.356
0.023,0.386,0.917,-1.038,-44.495,-111.633
0.015,0.383,0.899,1.038,-43.274,-106.384
0.012,0.395,0.879,2.625,-44.922,-100.830
0.004,0.398,0.865,2.686,-48.706,-96.680
-0.014,0.382,0.851,1.831,-53.223,-92.957
-0.022,0.363,0.839,0.610,-57.556,-88.623
-0.015,0.353,0.828,-1.038,-60.303,-83.435
-0.014,0.350,0.825,-3.174,-60.852,-78.796
-0.012,0.337,0.821,-6.165,-60.608,-76.843
-0.002,0.330,0.816,-9.338,-59.265,-76.721
-0.004,0.325,0.812,-12.939,-56.335,-77.637
-0.016,0.316,0.814,-16.663,-52.734,-79.651
-0.022,0.320,0.830,-19.348,-47.913,-81.482
-0.050,0.339,0.867,-21.240,-42.480,-82.336
-0.070,0.343,0.913,-21.667,-36.865,-82.275
-0.076,0.335,0.944,-19.897,-32.837,-80.750
-0.079,0.340,0.951,-16.052,-30.396,-77.148
-0.090,0.349,0.941,-11.902,-31.250,-72.388
-0.091,0.354,0.918,-8.728,-33.813,-67.261
-0.092,0.350,0.892,-7.935,-36.682,-62.073
-0.094,0.334,0.872,-8.972,-39.734,-58.044
-0.087,0.322,0.853,-11.169,-42.236,-55.115
-0.074,0.315,0.840,-14.282,-44.861,-52.673
-0.067,0.322,0.836,-17.883,-46.936,-51.208
-0.069,0.330,0.854,-22.217,-47.485,-50.903
-0.073,0.340,0.881,-25.208,-45.715,-50.476
-0.076,0.354,0.907,-26.245,-41.626,-49.927
-0.085,0.365,0.937,-24.963,-37.292,-49.805
-0.092,0.365,0.951,-22.461,-33.203,-48.889
-0.088,0.351,0.953,-19.104,-29.968,-47.241
-1.466,0.940,0.893,41.870,21.484,119.568
-1.618,0.968,0.774,48.035,32.166,146.545
-1.665,0.959,0.618,53.406,50.293,172.852
-1.648,0.939,0.466,57.983,70.679,192.993
-1.631,0.909,0.375,58.472,86.243,207.886
-1.553,0.859,0.338,54.749,98.999,222.717
-1.397,0.834,0.318,49.683,112.244,242.004
-1.197,0.839,0.324,43.518,123.047,264.038
-1.006,0.885,0.367,36.316,131.775,285.950
-0.832,0.939,0.425,31.372,143.372,306.580
-0.607,0.968,0.476,29.114,155.579,322.021
-0.370,1.024,0.491,31.128,168.884,333.435
-0.169,1.061,0.483,33.386,176.758,338.013
0.032,1.083,0.448,35.217,179.687,335.571
0.215,1.082,0.398,33.447,177.612,329.163
0.423,1.075,0.369,27.832,170.227,320.740
0.644,1.077,0.380,18.677,158.936,311.401
0.847,1.078,0.434,7.446,145.630,297.119
1.020,1.021,0.507,-5.554,135.132,276.245
1.122,0.951,0.589,-14.587,128.540,253.418
1.197,0.914,0.639,-15.808,126.404,234.741
1.293,0.891,0.659,-14.648,127.441,216.919
1.394,0.861,0.679,-14.587,126.892,197.876
1.484,0.840,0.692,-16.357,122.375,175.354
1.548,0.780,0.713,-19.287,113.037,147.217
1.612,0.702,0.760,-19.348,98.450,115.479
1.588,0.744,0.751,-23.315,85.022,88.196
1.583,0.684,0.718,-21.973,99.854,74.341
1.575,0.674,0.743,-13.855,75.745,44.983
1.546,0.631,0.772,-11.169,48.279,11.658
1.470,0.600,0.814,-14.038,33.691,-12.512
1.350,0.581,0.851,-16.174,27.649,-23.437
1.256,0.567,0.896,-15.747,21.851,-26.672
1.189,0.542,0.914,-15.198,19.653,-29.785
1.128,0.520,0.905,-12.512,19.897,-33.020
1.080,0.525,0.877,-6.409,15.625,-38.391
1.033,0.518,0.842,1.160,5.737,-48.157
0.969,0.488,0.808,6.714,-6.775,-62.012
0.906,0.476,0.784,10.437,-18.433,-76.172
0.847,0.442,0.756,11.841,-27.344,-98.511
0.779,0.425,0.740,6.531,-30.518,-100.037
0.705,0.426,0.729,0.244,-26.550,-96.313
0.653,0.411,0.720,-3.357,-25.330,-104.858
0.607,0.393,0.717,-4.700,-28.748,-115.173
0.533,0.381,0.722,-5.371,-33.813,-119.873
0.513,0.391,0.732,-4.517,-35.400,-114.441
0.476,0.391,0.748,-3.113,-44.312,-114.990
0.462,0.395,0.757,-5.676,-54.810,-120.728
0.429,0.387,0.765,-8.667,-62.073,-122.498
0.392,0.390,0.778,-10.803,-68.237,-124.268
0.349,0.391,0.788,-10.559,-71.594,-126.160
0.323,0.385,0.794,-11.047,-71.838,-128.418
0.306,0.375,0.800,-14.099,-69.885,-130.249
0.290,0.357,0.803,-15.686,-66.406,-131.409
0.266,0.339,0.805,-16.541,-63.782,-131.531
0.260,0.349,0.800,-16.907,-62.439,-130.310
0.245,0.360,0.804,-18.982,-64.148,-128.906
0.215,0.350,0.816,-21.790,-67.810,-127.991
0.203,0.353,0.830,-23.987,-72.144,-126.099
0.177,0.370,0.847,-24.963,-77.820,-124.512
0.146,0.388,0.869,-24.414,-82.092,-122.742
0.105,0.406,0.895,-22.644,-83.923,-119.629
0.076,0.425,0.911,-18.921,-83.801,-116.028
0.065,0.433,0.914,-13.611,-81.848,-112.427
0.051,0.430,0.901,-8.789,-78.674,-107.849
0.039,0.429,0.880,-5.676,-75.928,-103.577
0.020,0.423,0.857,-5.005,-74.951,-100.647
0.001,0.393,0.835,-6.714,-75.439,-98.328
-0.010,0.370,0.830,-8.972,-75.500,-94.727
-0.019,0.367,0.826,-9.460,-74.036,-89.722
-0.017,0.368,0.823,-10.315,-72.266,-85.999
-0.031,0.368,0.837,-11.597,-70.984,-83.862
-0.047,0.385,0.866,-12.024,-68.604,-81.177
-0.058,0.396,0.895,-11.230,-64.209,-78.796
-0.058,0.388,0.916,-9.277,-58.472,-76.660
-0.049,0.376,0.922,-6.958,-53.833,-74.829
-0.054,0.375,0.913,-3.723,-52.368,-74.036
-0.068,0.372,0.903,-1.099,-53.284,-73.914
-0.089,0.367,0.888,-0.244,-54.565,-72.998
-0.108,0.369,0.868,-1.221,-55.298,-71.167
-0.125,0.358,0.850,-4.089,-55.542,-69.092
-0.132,0.352,0.839,-7.446,-55.664,-67.017
-0.134,0.351,0.828,-10.864,-54.932,-65.186
-0.136,0.351,0.837,-15.076,-53.833,-63.965
-0.144,0.356,0.860,-18.616,-51.697,-63.110
-0.137,0.362,0.887,-21.362,-48.279,-61.646
-0.130,0.365,0.911,-23.682,-45.166,-60.242
-0.120,0.368,0.936,-24.597,-42.908,-58.960
-0.119,0.369,0.956,-23.865,-42.175,-57.434
-0.128,0.372,0.971,-21.484,-42.297,-55.664
-0.133,0.387,0.974,-17.883,-41.687,-53.955
-0.132,0.390,0.968,-14.648,-40.710,-51.758
-0.132,0.382,0.963,-11.841,-39.978,-50.781
-0.140,0.396,0.951,-9.460,-38.818,-50.049
-0.147,0.364,0.925,-6.531,-37.476,-55.359
-0.158,0.386,0.900,-5.737,-34.302,-50.049
-0.161,0.368,0.883,-6.653,-29.907,-41.321
-0.130,0.359,0.865,-9.033,-31.067,-45.227
-0.128,0.361,0.855,-12.146,-34.424,-43.518
-0.122,0.347,0.861,-16.724,-37.903,-43.213
-1.312,0.984,0.928,29.297,57.007,112.610
-1.464,0.974,0.858,38.757,68.176,135.010
-1.522,0.958,0.721,47.913,86.182,163.391
-1.536,0.929,0.580,54.749,102.905,192.322
-1.538,0.891,0.451,56.885,115.967,218.872
-1.463,0.873,0.351,52.795,124.817,246.277
-1.368,0.859,0.284,43.884,132.446,274.475
-1.171,0.860,0.239,35.583,137.390,302.490
-0.894,0.885,0.222,27.344,139.404,323.547
-0.644,0.901,0.257,19.226,137.756,335.083
-0.395,0.901,0.329,12.268,135.071,339.233
-0.070,0.909,0.395,11.719,134.766,335.754
0.155,0.923,0.412,14.526,137.451,320.740
0.274,0.880,0.427,16.235,143.494,296.204
0.396,0.838,0.386,20.325,154.663,274.719
0.550,0.817,0.312,23.499,168.579,259.583
0.685,0.806,0.269,21.790,177.368,249.023
0.815,0.782,0.278,15.076,176.453,242.981
0.948,0.761,0.307,7.324,164.673,238.892
1.090,0.736,0.355,0.366,144.775,234.619
1.223,0.719,0.414,-5.493,121.338,226.929
1.325,0.692,0.485,-10.925,99.731,213.318
1.392,0.675,0.558,-13.184,84.534,194.580
1.459,0.678,0.622,-11.963,79.407,172.668
1.559,0.647,0.679,-10.010,78.674,143.311
1.559,0.750,0.724,-17.029,76.599,112.976
1.587,0.709,0.773,-15.259,107.910,97.229
1.566,0.737,0.834,-4.456,92.896,62.988
1.583,0.716,0.848,0.366,70.679,22.949
1.509,0.694,0.877,-2.808,56.885,-0.793
1.381,0.691,0.918,-4.150,46.448,-7.263
1.275,0.695,0.951,-2.686,32.654,-8.728
1.246,0.686,0.949,-4.028,25.391,-10.010
1.211,0.670,0.933,-5.188,20.447,-11.292
1.166,0.654,0.913,-3.906,11.108,-18.188
1.101,0.645,0.896,-0.671,-1.648,-29.724
1.043,0.644,0.882,2.380,-12.024,-43.213
0.942,0.607,0.875,3.052,-18.555,-59.326
0.883,0.578,0.860,3.479,-22.217,-77.087
0.763,0.596,0.836,1.099,-19.470,-72.144
0.726,0.564,0.806,-4.211,-13.367,-74.585
0.659,0.524,0.790,-5.066,-16.907,-86.914
0.596,0.508,0.784,-4.395,-26.794,-95.947
0.543,0.481,0.785,-2.869,-37.170,-99.487
0.494,0.458,0.792,-3.296,-50.171,-102.173
0.453,0.449,0.798,-5.188,-60.913,-104.309
0.430,0.459,0.814,-7.202,-68.054,-104.980
0.395,0.459,0.842,-6.348,-71.289,-103.394
0.384,0.457,0.859,-4.028,-71.655,-103.638
0.375,0.454,0.861,-0.854,-70.801,-106.323
0.357,0.454,0.861,2.441,-70.313,-110.291
0.339,0.451,0.855,3.845,-69.275,-113.586
0.311,0.435,0.842,4.700,-68.359,-116.455
0.283,0.422,0.824,4.761,-68.420,-118.835
0.255,0.419,0.810,2.625,-69.885,-121.521
0.210,0.401,0.800,-1.038,-72.449,-123.962
0.161,0.391,0.812,-4.578,-73.730,-124.512
0.122,0.391,0.831,-5.371,-72.998,-123.047
0.097,0.397,0.853,-5.127,-72.021,-120.605
0.069,0.384,0.873,-4.211,-71.350,-116.943
0.075,0.376,0.885,-1.343,-71.350,-111.328
0.087,0.381,0.887,2.319,-71.899,-105.286
0.084,0.387,0.886,5.981,-73.669,-101.013
0.087,0.386,0.879,9.338,-76.355,-98.938
0.087,0.386,0.870,12.207,-78.613,-98.328
0.063,0.383,0.855,14.832,-79.346,-98.755
0.035,0.373,0.833,15.930,-77.148,-98.572
0.033,0.371,0.805,14.771,-73.914,-97.656
0.015,0.374,0.787,10.254,-72.449,-97.900
-0.027,0.364,0.787,4.272,-72.876,-98.511
-0.066,0.343,0.792,-0.793,-73.547,-96.924
-0.085,0.326,0.802,-4.333,-74.097,-93.628
-0.101,0.326,0.808,-7.202,-74.158,-89.417
-0.099,0.322,0.816,-10.010,-73.975,-85.205
-0.103,0.321,0.828,-11.902,-74.280,-82.397
-0.096,0.320,0.838,-12.512,-73.059,-80.139
-0.098,0.320,0.854,-12.695,-70.557,-77.637
-0.098,0.327,0.868,-12.085,-66.467,-75.867
-0.092,0.320,0.879,-11.658,-60.852,-74.890
-0.087,0.319,0.884,-10.620,-53.467,-74.951
-0.086,0.330,0.887,-9.033,-45.654,-76.416
-0.085,0.337,0.891,-8.057,-37.537,-78.308
-0.080,0.345,0.889,-7.568,-29.602,-80.933
-0.091,0.353,0.878,-7.385,-22.522,-83.923
-0.120,0.343,0.871,-8.301,-16.663,-85.815
-0.138,0.336,0.862,-10.193,-12.329,-85.083
-0.138,0.339,0.856,-13.062,-10.742,-82.520
-0.137,0.343,0.852,-17.639,-12.146,-78.491
-0.140,0.329,0.860,-23.315,-16.846,-74.158
-0.135,0.322,0.872,-27.283,-23.499,-68.176
-0.108,0.326,0.884,-30.396,-30.457,-61.096
-0.068,0.329,0.900,-33.447,-37.048,-55.603
-0.054,0.342,0.922,-34.851,-41.870,-52.063
-0.047,0.360,0.934,-35.034,-43.579,-50.354
-0.037,0.367,0.945,-34.302,-42.542,-50.232
-0.044,0.378,0.954,-32.410,-38.269,-51.208
-0.059,0.383,0.961,-29.297,-32.532,-52.917
-0.066,0.397,0.956,-25.513,-27.405,-54.504
-0.068,0.414,0.950,-22.095,-23.376,-55.847
-0.094,0.400,0.950,-20.996,-20.264,-56.885
1.568,0.974,0.599,-49.011,82.275,134.216
1.505,0.937,0.632,-49.316,71.167,94.788
1.618,0.890,0.613,-56.519,89.600,66.528
1.549,0.869,0.617,-47.485,93.567,35.828
1.567,0.790,0.666,-43.884,71.960,-9.033
1.460,0.767,0.699,-40.894,55.664,-42.542
1.326,0.772,0.740,-41.504,52.612,-58.228
1.195,0.760,0.778,-41.443,51.697,-64.209
1.144,0.737,0.804,-41.931,49.377,-62.317
1.108,0.714,0.814,-39.001,43.213,-56.885
1.054,0.688,0.842,-31.494,29.724,-56.213
1.008,0.649,0.851,-23.254,10.864,-62.317
0.929,0.612,0.864,-15.625,-6.897,-72.083
0.870,0.567,0.854,-8.606,-19.836,-87.830
0.726,0.608,0.851,-5.066,-25.024,-78.125
0.649,0.567,0.819,-8.118,-18.738,-78.857
0.608,0.528,0.787,-5.798,-14.221,-87.402
0.563,0.525,0.759,0.427,-14.709,-88.379
0.523,0.497,0.746,2.197,-18.738,-90.576
0.437,0.464,0.749,1.038,-25.940,-93.384
0.396,0.457,0.753,0.305,-29.907,-87.158
0.338,0.439,0.774,2.991,-39.368,-90.088
0.311,0.433,0.791,1.953,-48.950,-94.971
0.278,0.449,0.806,2.014,-54.443,-93.750
0.248,0.466,0.819,3.418,-60.364,-93.689
0.242,0.490,0.816,5.310,-64.758,-93.872
0.238,0.522,0.803,7.019,-66.467,-92.468
0.238,0.546,0.799,7.996,-66.711,-92.529
0.260,0.568,0.792,8.362,-66.101,-94.116
0.270,0.570,0.786,6.958,-64.636,-96.191
0.273,0.546,0.789,3.601,-61.707,-97.473
0.276,0.527,0.801,-0.061,-59.082,-99.243
0.281,0.527,0.814,-3.052,-57.190,-100.281
0.285,0.524,0.823,-6.042,-55.664,-102.173
0.269,0.531,0.844,-8.484,-55.908,-103.943
0.228,0.541,0.885,-9.399,-56.885,-104.858
0.208,0.558,0.929,-6.287,-55.420,-102.478
0.205,0.553,0.947,-1.953,-51.086,-95.276
0.218,0.541,0.942,2.075,-48.035,-88.135
0.223,0.534,0.924,5.981,-48.645,-82.703
0.234,0.522,0.903,8.362,-52.246,-78.613
0.241,0.504,0.885,8.911,-56.702,-75.500
0.242,0.479,0.873,8.301,-60.303,-73.120
0.245,0.457,0.859,7.019,-62.744,-72.388
0.236,0.435,0.845,5.188,-63.416,-73.303
0.218,0.413,0.825,3.601,-61.829,-75.378
0.198,0.403,0.805,2.136,-58.228,-78.064
0.177,0.403,0.792,0.916,-53.711,-81.360
0.136,0.422,0.796,-1.343,-49.255,-83.069
0.096,0.414,0.819,-5.188,-45.532,-82.825
0.079,0.393,0.850,-8.118,-43.396,-80.688
0.076,0.394,0.873,-7.629,-43.884,-76.111
0.058,0.394,0.881,-6.165,-46.631,-72.693
0.041,0.385,0.889,-4.089,-50.842,-69.458
0.031,0.372,0.892,-1.831,-55.237,-65.491
0.043,0.365,0.887,0.671,-58.472,-61.646
0.052,0.360,0.878,2.319,-61.462,-59.814
0.054,0.345,0.877,3.052,-64.453,-59.753
0.056,0.338,0.871,3.662,-66.162,-59.937
0.055,0.336,0.862,3.479,-65.918,-60.364
0.055,0.341,0.850,3.113,-64.209,-61.462
0.054,0.342,0.844,2.136,-62.683,-64.209
0.032,0.331,0.846,0.244,-61.707,-67.505
-0.004,0.329,0.847,-0.610,-60.181,-70.007
-0.034,0.333,0.847,-1.160,-59.021,-70.496
-0.059,0.320,0.849,-1.465,-58.228,-69.519
-0.071,0.334,0.846,-0.610,-58.105,-67.993
-0.058,0.318,0.843,-0.427,-58.472,-65.613
-0.067,0.365,0.846,-2.686,-58.594,-61.890
-0.027,0.358,0.840,-7.263,-58.777,-60.120
-0.029,0.341,0.860,-13.062,-60.181,-59.326
-0.042,0.360,0.882,-14.343,-59.937,-58.716
-0.042,0.357,0.901,-14.526,-57.739,-58.899
-0.043,0.353,0.915,-14.221,-54.260,-59.326
-0.044,0.365,0.922,-12.024,-49.255,-59.753
-0.050,0.369,0.930,-9.216,-43.274,-61.401
-0.038,0.376,0.925,-5.737,-36.621,-63.354
-0.035,0.381,0.909,-2.991,-31.128,-65.857
-0.033,0.375,0.893,-1.892,-28.076,-67.993
-0.047,0.376,0.878,-2.014,-26.978,-68.970
-0.056,0.379,0.864,-3.296,-27.100,-69.031
-0.048,0.380,0.849,-5.676,-27.893,-68.298
-0.038,0.382,0.840,-9.155,-29.724,-66.528
-0.039,0.384,0.843,-13.245,-32.471,-65.430
-0.047,0.382,0.856,-17.090,-34.912,-63.965
-0.044,0.383,0.870,-19.592,-35.828,-62.134
-0.036,0.382,0.888,-21.118,-35.217,-59.753
-0.039,0.385,0.916,-21.301,-33.447,-57.373
-0.037,0.387,0.936,-20.081,-31.128,-54.871
-0.026,0.396,0.939,-17.761,-29.236,-53.040
-0.014,0.420,0.937,-14.893,-27.588,-51.331
-0.014,0.399,0.934,-10.498,-27.771,-56.580
-0.032,0.424,0.937,-5.798,-26.611,-50.720
-0.021,0.428,0.924,-2.319,-23.804,-45.715
-0.001,0.425,0.906,-1.953,-23.621,-52.246
-0.001,0.432,0.895,-1.526,-24.841,-55.725
-0.014,0.426,0.890,-2.686,-25.146,-58.594
-0.026,0.427,0.884,-4.517,-26.001,-60.486
-0.046,0.437,0.880,-7.202,-26.245,-60.303
-0.069,0.430,0.890,-9.888,-25.452,-59.143
-1.257,1.110,0.996,46.509,102.905,38.940
-1.421,1.133,0.952,56.335,105.225,67.688
-1.558,1.160,0.873,62.927,102.783,104.065
-1.622,1.166,0.760,70.374,96.191,150.146
-1.595,1.158,0.609,76.111,84.717,195.251
-1.527,1.132,0.491,78.552,72.571,236.023
-1.415,1.122,0.369,77.148,66.895,271.729
-1.336,1.113,0.309,71.472,69.031,304.260
-1.218,1.101,0.261,61.401,80.261,335.266
-1.007,1.122,0.207,51.025,99.487,367.126
-0.710,1.159,0.135,38.940,119.446,394.714
-0.422,1.144,0.127,25.146,136.230,413.940
-0.140,1.135,0.162,14.099,148.132,424.805
0.145,1.153,0.188,7.324,155.029,427.734
0.370,1.155,0.207,1.953,156.738,421.753
0.518,1.162,0.240,-3.296,156.311,409.851
0.681,1.124,0.250,-6.531,159.973,394.775
0.865,1.080,0.216,-7.446,166.931,381.470
1.042,1.030,0.178,-10.620,168.396,371.338
1.209,0.992,0.182,-17.639,156.494,361.267
1.370,0.974,0.240,-26.062,133.118,350.891
1.493,0.988,0.352,-35.034,105.042,337.402
1.627,1.033,0.500,-41.199,78.186,315.857
1.735,1.062,0.667,-43.884,58.655,282.837
1.828,1.078,0.806,-43.457,47.302,236.511
1.861,1.073,0.910,-38.208,40.588,175.415
1.745,1.026,1.022,-34.058,33.691,106.323
1.703,0.995,0.999,-37.598,62.378,57.800
1.546,0.958,0.973,-21.545,73.547,12.939
1.458,0.894,0.979,-12.085,58.044,-34.607
1.298,0.844,0.983,-7.996,49.011,-66.284
1.130,0.817,0.968,-8.362,50.903,-78.674
0.996,0.769,0.935,-7.874,51.331,-75.256
0.918,0.723,0.906,-7.568,43.457,-70.129
0.833,0.694,0.866,-6.165,32.104,-64.819
0.737,0.672,0.839,-4.211,16.968,-61.523
0.659,0.641,0.824,-2.075,0.244,-61.829
0.607,0.629,0.820,-0.183,-13.550,-62.622
0.508,0.583,0.826,2.258,-23.804,-70.496
0.471,0.586,0.833,0.793,-29.785,-78.735
0.368,0.585,0.844,-2.319,-22.278,-73.242
0.318,0.576,0.836,-2.136,-12.817,-81.665
0.269,0.570,0.818,-1.587,-7.385,-97.351
0.224,0.515,0.822,-2.502,-5.432,-107.422
0.169,0.494,0.825,-2.930,-4.211,-107.605
0.190,0.466,0.816,-0.305,1.770,-97.595
0.167,0.472,0.814,3.784,-7.751,-94.788
0.182,0.472,0.811,2.014,-19.470,-95.337
0.194,0.452,0.815,-0.061,-28.137,-91.431
0.199,0.473,0.834,-1.160,-35.278,-85.876
0.248,0.480,0.850,-1.404,-38.757,-80.566
0.300,0.476,0.867,-3.784,-42.786,-79.468
0.308,0.483,0.883,-5.371,-46.753,-82.764
0.320,0.481,0.906,-5.127,-47.668,-87.769
0.313,0.493,0.933,-3.357,-46.021,-91.675
0.322,0.504,0.946,-0.366,-42.236,-96.008
0.322,0.513,0.937,2.563,-37.109,-101.135
0.296,0.510,0.929,5.859,-31.311,-103.882
0.279,0.508,0.907,9.155,-26.794,-103.760
0.277,0.498,0.879,10.071,-24.780,-102.356
0.286,0.463,0.857,8.667,-26.428,-98.755
0.300,0.447,0.844,6.897,-33.264,-92.834
0.313,0.430,0.836,3.296,-45.349,-89.172
0.321,0.414,0.833,-0.305,-59.326,-87.219
0.320,0.420,0.834,-2.136,-71.533,-85.388
0.307,0.423,0.840,-3.967,-80.078,-86.609
0.280,0.427,0.871,-3.967,-83.557,-87.952
0.253,0.420,0.886,-1.892,-81.299,-88.928
0.244,0.425,0.895,0.732,-75.012,-89.844
0.234,0.424,0.913,3.601,-68.848,-90.393
0.216,0.411,0.919,6.836,-64.087,-90.637
0.190,0.399,0.912,11.353,-61.890,-91.003
0.166,0.369,0.888,14.038,-62.500,-90.332
0.135,0.352,0.857,14.954,-65.063,-88.623
0.126,0.349,0.828,15.442,-67.444,-85.205
0.117,0.338,0.808,13.794,-70.007,-83.008
0.106,0.330,0.794,10.864,-73.303,-82.214
0.109,0.332,0.777,7.324,-76.111,-81.970
0.092,0.320,0.770,1.587,-78.369,-83.374
0.062,0.317,0.777,-3.418,-78.979,-85.632
0.035,0.322,0.796,-7.629,-76.538,-86.060
-0.002,0.328,0.834,-10.376,-72.083,-85.938
-0.031,0.337,0.872,-9.705,-66.284,-85.388
-0.036,0.349,0.891,-6.592,-59.387,-83.740
-0.040,0.352,0.895,-2.075,-54.260,-82.153
-0.046,0.351,0.892,2.502,-51.453,-81.604
-0.058,0.354,0.881,6.042,-50.720,-81.299
-0.070,0.354,0.856,7.935,-50.903,-80.994
-0.083,0.343,0.824,6.592,-51.636,-80.200
-0.096,0.339,0.805,2.808,-52.368,-79.468
-0.073,0.307,0.794,-2.686,-52.795,-79.651
-0.070,0.298,0.784,-7.996,-52.185,-77.515
-0.064,0.308,0.788,-13.611,-51.880,-76.172
-0.065,0.309,0.800,-19.897,-51.453,-75.623
-0.085,0.321,0.840,-24.597,-49.011,-75.134
-0.111,0.343,0.895,-25.940,-44.434,-74.097
-0.120,0.362,0.929,-23.621,-38.086,-72.083
-0.101,0.390,0.937,-19.287,-32.776,-69.275
-0.098,0.413,0.939,-14.404,-29.907,-67.139
-0.110,0.418,0.933,-10.010,-29.663,-65.796
-1.291,1.136,0.966,16.479,20.630,88.379
-1.532,1.144,0.981,15.137,30.396,109.680
-1.681,1.196,0.864,36.621,44.373,131.470
-1.768,1.263,0.695,52.063,63.354,166.138
-1.754,1.211,0.593,56.641,70.374,201.721
-1.704,1.125,0.524,59.692,73.181,233.704
-1.582,1.069,0.447,61.340,83.435,265.564
-1.381,1.034,0.348,60.547,101.013,288.574
-1.192,1.000,0.283,58.105,123.413,299.133
-1.016,0.949,0.204,55.298,153.259,302.246
-0.813,0.913,0.104,50.049,189.209,304.932
-0.588,0.891,0.040,40.100,220.764,307.678
-0.321,0.902,0.022,30.701,241.150,309.509
-0.069,0.918,0.029,22.949,253.479,310.913
0.139,0.904,0.024,16.602,260.437,313.293
0.338,0.913,-0.002,13.489,263.489,316.284
0.566,0.924,-0.018,10.193,264.587,319.153
0.824,0.918,0.004,7.324,258.118,317.810
1.077,0.917,0.021,5.432,243.042,310.303
1.265,0.895,0.072,0.549,216.736,290.710
1.399,0.870,0.154,-5.127,183.105,262.878
1.499,0.844,0.266,-9.033,153.992,231.506
1.532,0.829,0.358,-10.315,133.057,197.876
1.551,0.821,0.433,-10.437,119.141,165.710
1.572,0.792,0.513,-10.803,110.046,137.024
1.622,0.795,0.571,-12.695,100.159,109.436
1.569,0.782,0.666,-16.541,86.487,85.205
1.669,0.753,0.688,-27.832,98.633,80.078
1.636,0.729,0.750,-19.043,90.515,71.045
1.690,0.683,0.817,-11.230,56.641,41.260
1.645,0.647,0.842,-8.240,35.706,16.907
1.557,0.623,0.864,-12.451,26.184,6.836
1.460,0.592,0.892,-14.038,14.832,4.395
1.408,0.561,0.905,-15.808,5.371,-1.343
1.332,0.540,0.903,-16.479,1.709,-6.775
1.245,0.529,0.896,-13.977,-3.967,-13.062
1.166,0.514,0.883,-8.972,-12.146,-22.278
1.099,0.509,0.862,-3.906,-22.034,-34.119
1.010,0.491,0.840,-0.793,-32.227,-48.401
0.951,0.460,0.810,0.610,-41.626,-72.021
0.818,0.495,0.785,-1.465,-45.959,-67.810
0.736,0.482,0.763,-8.606,-42.114,-68.359
0.703,0.457,0.750,-12.451,-40.283,-79.346
0.673,0.459,0.738,-12.146,-42.053,-84.778
0.607,0.447,0.741,-13.916,-46.082,-89.661
0.569,0.418,0.755,-14.221,-48.218,-87.708
0.512,0.429,0.752,-10.010,-58.228,-94.299
0.489,0.415,0.772,-10.010,-68.237,-100.342
0.433,0.451,0.800,-8.972,-72.144,-99.426
0.411,0.441,0.824,-7.812,-72.815,-97.656
0.399,0.454,0.833,-4.761,-73.730,-97.168
0.426,0.463,0.832,-0.793,-73.242,-98.877
0.427,0.489,0.829,1.160,-73.242,-101.379
0.420,0.467,0.827,0.610,-76.233,-107.239
0.399,0.449,0.831,0.122,-80.505,-112.244
0.375,0.437,0.816,-0.244,-83.679,-113.464
0.341,0.422,0.799,-1.770,-85.999,-113.159
0.318,0.413,0.787,-3.296,-89.050,-112.732
0.278,0.415,0.782,-4.395,-91.125,-111.145
0.234,0.402,0.794,-5.371,-91.980,-110.352
0.183,0.429,0.815,-5.493,-90.393,-108.459
0.174,0.434,0.823,-5.127,-86.548,-105.591
0.163,0.424,0.832,-3.723,-81.604,-102.051
0.150,0.432,0.825,-0.793,-77.026,-98.999
0.144,0.449,0.829,1.953,-74.341,-98.145
0.132,0.456,0.836,3.845,-74.463,-97.778
0.101,0.444,0.833,5.615,-75.562,-97.046
0.062,0.427,0.825,7.935,-77.148,-95.764
0.060,0.418,0.816,9.460,-78.857,-92.957
0.081,0.415,0.808,8.850,-80.139,-89.783
0.072,0.413,0.802,6.409,-82.458,-89.661
0.035,0.392,0.806,3.235,-85.327,-90.820
0.004,0.369,0.817,1.770,-85.938,-90.149
0.005,0.356,0.824,0.732,-82.092,-88.196
0.002,0.355,0.822,-0.366,-74.646,-86.060
-0.012,0.354,0.824,-1.831,-66.101,-85.571
-0.039,0.330,0.824,-2.686,-58.350,-86.060
-0.046,0.323,0.810,-2.869,-52.490,-86.853
-0.064,0.325,0.794,-4.150,-49.866,-87.219
-0.090,0.320,0.789,-6.653,-51.331,-87.036
-0.124,0.323,0.785,-9.155,-54.626,-84.961
-0.142,0.317,0.783,-12.695,-57.312,-80.078
-0.141,0.322,0.788,-16.541,-58.655,-74.646
-0.131,0.325,0.797,-20.691,-59.021,-70.374
-0.126,0.324,0.818,-25.085,-58.594,-67.627
-0.117,0.334,0.846,-27.954,-57.068,-66.528
-0.111,0.347,0.882,-29.419,-53.406,-66.589
-0.106,0.347,0.915,-30.029,-47.852,-67.627
-0.083,0.357,0.948,-29.053,-41.382,-67.505
-0.031,0.368,0.967,-27.100,-36.194,-67.627
-0.028,0.374,0.962,-24.475,-33.508,-70.129
-0.036,0.378,0.952,-21.729,-33.325,-73.059
-0.054,0.376,0.944,-19.043,-34.485,-74.951
-0.084,0.362,0.922,-16.907,-35.767,-75.806
-0.106,0.354,0.897,-15.137,-36.865,-75.317
-0.119,0.358,0.873,-14.160,-37.354,-72.815
-0.123,0.363,0.845,-14.587,-36.804,-69.092
-0.118,0.365,0.829,-16.785,-35.950,-64.819
-0.106,0.371,0.818,-19.287,-34.302,-60.791
-0.097,0.380,0.820,-22.339,-33.081,-57.800
-1.273,1.218,0.834,-11.353,55.054,52.551
-1.494,1.251,0.836,-8.057,74.402,75.928
-1.610,1.265,0.790,1.099,90.393,112.671
-1.621,1.276,0.677,11.841,97.534,152.771
-1.667,1.215,0.557,21.606,98.877,189.331
-1.641,1.117,0.435,30.212,105.469,223.572
-1.524,1.044,0.287,36.438,121.948,254.700
-1.362,0.974,0.168,39.856,142.029,279.053
-1.253,0.920,0.124,37.415,161.743,297.485
-1.081,0.895,0.083,34.790,184.570,317.871
-0.878,0.926,0.037,31.799,206.116,337.891
-0.651,0.971,0.000,27.039,223.389,356.018
-0.399,0.980,-0.030,18.494,233.582,367.676
-0.196,0.971,-0.001,7.812,236.267,376.770
0.017,0.997,0.053,0.000,236.938,386.963
0.311,1.012,0.111,-2.991,237.366,393.005
0.546,1.013,0.133,-2.625,234.924,389.648
0.769,0.964,0.149,-3.235,227.173,374.023
1.024,0.907,0.174,-2.258,216.675,353.394
1.276,0.880,0.176,0.244,204.468,330.261
1.465,0.839,0.218,-0.305,183.472,301.758
1.614,0.870,0.247,-2.686,157.227,273.254
1.700,0.884,0.307,-10.193,129.333,244.507
1.720,0.910,0.422,-20.203,101.868,214.539
1.709,0.952,0.545,-25.940,81.543,183.472
1.720,0.955,0.664,-28.809,70.374,148.804
1.615,0.949,0.798,-28.137,61.279,112.366
1.602,1.020,0.837,-32.776,72.571,89.783
1.512,1.029,0.870,-20.874,88.135,72.021
1.512,1.034,0.934,-7.690,67.993,33.813
1.430,1.019,0.973,0.427,45.166,0.916
1.325,1.020,0.985,0.610,31.250,-19.104
1.208,1.009,0.987,0.366,23.499,-25.940
1.135,0.989,0.980,1.953,13.977,-32.959
1.048,0.962,0.968,2.991,5.615,-42.664
0.971,0.923,0.953,6.531,-2.808,-51.025
0.903,0.913,0.925,13.245,-12.390,-59.021
0.802,0.829,0.897,18.555,-22.644,-71.655
0.734,0.781,0.867,23.621,-33.508,-83.801
0.631,0.741,0.828,22.766,-35.461,-80.383
0.582,0.673,0.795,19.348,-35.645,-84.717
0.547,0.634,0.761,19.714,-38.147,-94.116
0.516,0.595,0.739,19.897,-40.649,-100.891
0.442,0.558,0.735,17.456,-43.213,-106.873
0.414,0.537,0.742,14.709,-40.100,-106.689
0.392,0.518,0.773,15.991,-43.396,-109.558
0.394,0.516,0.813,13.611,-49.438,-115.051
0.344,0.511,0.848,13.062,-54.138,-118.774
0.289,0.501,0.869,14.404,-58.594,-123.108
0.248,0.497,0.870,17.822,-60.852,-122.925
0.239,0.492,0.851,21.057,-61.279,-119.629
0.239,0.475,0.825,22.583,-62.256,-117.737
0.243,0.464,0.807,22.705,-64.575,-115.540
0.251,0.463,0.791,21.362,-66.895,-114.014
0.257,0.450,0.778,19.287,-69.153,-114.807
0.237,0.438,0.768,15.442,-71.472,-119.019
0.211,0.422,0.759,11.292,-72.571,-124.268
0.186,0.414,0.758,7.935,-71.899,-127.808
0.154,0.416,0.767,4.944,-69.946,-130.066
0.115,0.419,0.791,3.235,-67.749,-130.859
0.096,0.423,0.810,2.808,-65.125,-130.127
0.073,0.414,0.835,3.296,-62.317,-127.136
0.059,0.399,0.862,4.395,-61.035,-122.131
0.060,0.393,0.875,7.080,-61.646,-116.028
0.057,0.394,0.873,11.047,-63.110,-110.413
0.059,0.389,0.858,14.343,-64.758,-104.980
0.093,0.404,0.840,16.235,-67.078,-99.915
0.115,0.415,0.819,15.015,-70.129,-97.656
0.098,0.404,0.805,11.292,-74.341,-98.999
0.057,0.397,0.799,8.057,-78.247,-100.159
0.036,0.377,0.785,4.639,-79.834,-99.731
0.009,0.384,0.793,1.648,-77.942,-95.642
0.017,0.389,0.804,-1.160,-73.914,-90.881
-0.002,0.377,0.828,-3.662,-71.411,-88.562
-0.031,0.376,0.852,-3.052,-69.824,-87.891
-0.037,0.377,0.857,-0.122,-68.237,-87.036
-0.023,0.383,0.848,2.808,-65.735,-85.632
-0.021,0.387,0.839,4.028,-63.782,-85.449
-0.031,0.384,0.832,3.906,-62.134,-85.571
-0.036,0.375,0.829,2.808,-59.448,-85.327
-0.033,0.362,0.827,1.099,-55.481,-84.961
-0.029,0.353,0.818,-1.343,-50.232,-84.839
-0.048,0.333,0.813,-4.883,-45.044,-84.900
-0.053,0.326,0.803,-8.240,-40.466,-84.656
-0.047,0.327,0.796,-13.123,-38.147,-84.595
-0.058,0.333,0.802,-18.250,-39.673,-84.534
-0.083,0.333,0.812,-23.254,-44.189,-83.740
-0.117,0.342,0.828,-27.100,-51.086,-81.787
-0.135,0.362,0.843,-28.870,-56.885,-77.759
-0.155,0.372,0.867,-29.480,-60.364,-72.327
-0.153,0.383,0.888,-29.358,-60.669,-66.406
-0.146,0.390,0.909,-28.259,-57.373,-60.547
-0.131,0.401,0.919,-26.306,-52.795,-57.434
-0.105,0.382,0.924,-24.658,-47.241,-57.373
-0.108,0.384,0.933,-21.729,-41.077,-57.495
-0.102,0.385,0.926,-18.127,-34.607,-58.777
-0.093,0.388,0.921,-15.747,-29.663,-61.157
-0.089,0.392,0.911,-13.306,-24.780,-63.660
-0.085,0.401,0.896,-11.719,-19.836,-66.650
-0.139,0.383,0.888,-9.583,-17.212,-73.792
-1.586,0.955,0.907,53.894,10.254,167.480
-1.747,1.034,0.817,67.810,23.743,212.341
-1.769,1.091,0.620,80.444,47.974,241.882
-1.807,1.056,0.432,79.163,74.219,258.606
-1.781,0.942,0.290,68.970,99.731,269.348
-1.696,0.831,0.130,52.795,120.422,280.457
-1.597,0.768,0.082,35.095,137.817,286.987
-1.450,0.758,0.088,17.944,150.635,289.429
-1.245,0.761,0.118,3.235,165.466,289.246
-1.080,0.793,0.199,-9.521,184.082,289.917
-0.948,0.873,0.274,-15.625,202.759,292.236
-0.785,0.999,0.324,-13.794,219.910,301.025
-0.532,1.059,0.332,-9.583,233.215,311.707
-0.284,1.132,0.276,-5.554,233.459,318.604
-0.062,1.173,0.232,-8.301,213.318,315.002
0.157,1.171,0.201,-17.151,182.068,306.519
0.299,1.152,0.210,-26.184,148.743,296.509
0.421,1.159,0.200,-32.837,124.146,288.025
0.586,1.142,0.219,-40.527,111.511,280.457
0.746,1.140,0.254,-46.204,108.337,271.545
0.908,1.136,0.291,-48.584,110.840,257.263
1.077,1.125,0.356,-50.781,113.647,239.746
1.244,1.099,0.453,-52.185,115.173,219.604
1.432,1.110,0.547,-50.964,114.929,197.021
1.618,1.077,0.655,-48.767,109.924,171.265
1.784,1.015,0.743,-45.715,97.778,142.029
1.835,1.000,0.813,-45.410,77.698,115.234
2.031,0.916,0.861,-44.617,89.111,100.708
2.075,0.856,0.923,-34.180,71.838,83.923
2.168,0.784,1.000,-27.161,35.706,51.514
2.124,0.772,1.032,-23.254,13.306,21.851
2.052,0.755,1.056,-23.804,8.301,4.272
1.938,0.742,1.055,-22.400,7.568,-7.385
1.815,0.739,1.050,-19.897,10.315,-22.217
1.666,0.748,1.037,-11.353,13.794,-38.330
1.534,0.772,0.983,2.380,12.329,-56.213
1.400,0.737,0.916,14.404,6.104,-78.125
1.255,0.688,0.854,23.560,-3.967,-99.121
1.095,0.647,0.766,29.724,-16.907,-124.512
0.905,0.648,0.688,32.104,-26.306,-126.953
0.769,0.629,0.621,26.428,-31.799,-127.991
0.639,0.603,0.580,20.996,-40.771,-136.169
0.477,0.620,0.567,17.883,-51.025,-140.747
0.396,0.616,0.588,14.954,-50.415,-131.287
0.295,0.600,0.612,15.442,-56.458,-128.601
0.249,0.601,0.637,12.695,-63.965,-130.371
0.215,0.603,0.657,10.254,-66.772,-127.136
0.195,0.590,0.693,5.188,-71.411,-128.052
0.154,0.600,0.729,1.648,-77.209,-132.019
0.105,0.618,0.762,0.305,-78.918,-136.536
0.080,0.619,0.803,0.610,-75.195,-139.038
0.056,0.610,0.827,2.319,-69.885,-142.151
0.052,0.605,0.837,4.028,-62.988,-143.860
0.036,0.601,0.838,6.042,-56.335,-142.578
0.024,0.579,0.826,6.775,-52.612,-139.648
0.013,0.563,0.819,6.592,-52.185,-135.071
0.001,0.551,0.818,5.371,-54.932,-129.578
-0.014,0.526,0.829,2.991,-59.204,-122.192
-0.033,0.513,0.839,1.892,-63.782,-113.708
-0.028,0.508,0.840,3.052,-67.444,-105.591
0.013,0.507,0.845,4.150,-70.801,-98.755
0.042,0.495,0.859,4.395,-74.768,-95.398
0.025,0.474,0.871,5.432,-79.651,-96.802
-0.001,0.461,0.879,8.362,-83.130,-98.022
0.007,0.449,0.880,11.658,-82.947,-96.802
0.054,0.447,0.881,13.794,-80.383,-95.398
0.035,0.427,0.885,14.099,-79.346,-97.778
-0.018,0.402,0.888,14.465,-81.116,-101.196
-0.069,0.380,0.883,15.381,-82.397,-100.098
-0.080,0.346,0.866,15.503,-80.383,-95.337
-0.091,0.344,0.859,15.442,-77.698,-88.074
-0.084,0.332,0.847,13.184,-74.463,-82.092
-0.070,0.318,0.851,10.193,-71.960,-78.308
-0.065,0.317,0.856,7.812,-69.397,-77.332
-0.054,0.316,0.861,5.493,-65.491,-78.186
-0.070,0.318,0.864,2.991,-62.134,-80.566
-0.092,0.313,0.869,0.916,-58.228,-83.130
-0.099,0.299,0.871,-0.549,-52.856,-83.557
-0.088,0.285,0.867,-2.197,-47.913,-83.740
-0.097,0.275,0.855,-3.479,-43.945,-84.900
-0.112,0.266,0.839,-5.005,-41.931,-85.876
-0.131,0.261,0.818,-7.568,-42.664,-86.365
-0.140,0.267,0.799,-11.047,-43.945,-85.571
-0.152,0.276,0.788,-15.564,-45.410,-84.167
-0.157,0.289,0.788,-20.386,-47.180,-82.886
-0.161,0.305,0.782,-25.208,-49.072,-81.360
-0.177,0.319,0.813,-28.503,-49.744,-78.796
-0.175,0.325,0.828,-31.616,-47.607,-75.378
-0.168,0.331,0.840,-32.776,-44.800,-72.693
-0.146,0.347,0.853,-33.081,-40.161,-70.190
-0.132,0.345,0.865,-33.630,-35.217,-69.092
-0.138,0.346,0.877,-33.203,-31.006,-70.251
-0.130,0.370,0.880,-31.494,-27.100,-71.289
-0.110,0.365,0.886,-30.090,-22.705,-71.899
-0.108,0.386,0.885,-28.259,-18.738,-71.472
-0.121,0.378,0.890,-27.222,-14.771,-69.885
-0.142,0.359,0.911,-25.330,-13.428,-68.542
-0.086,0.393,0.892,-20.142,-14.954,-69.092
-0.132,0.420,0.890,-16.235,-15.686,-52.795
-0.098,0.385,0.885,-17.090,-17.944,-47.974
-1.294,0.994,0.912,49.255,10.437,152.161
-1.382,1.066,0.786,54.626,22.827,165.833
-1.462,0.998,0.745,50.537,40.771,172.607
-1.504,0.931,0.692,46.509,66.101,183.960
-1.512,0.890,0.632,42.419,90.088,195.923
-1.503,0.876,0.559,37.598,111.328,208.008
-1.467,0.854,0.501,32.349,130.554,223.572
-1.364,0.794,0.458,27.710,145.081,238.770
-1.256,0.776,0.415,25.330,152.588,251.160
-1.148,0.794,0.375,26.428,154.053,262.024
-1.007,0.793,0.336,28.198,155.273,271.606
-0.870,0.802,0.283,28.870,158.447,278.748
-0.745,0.802,0.216,27.771,162.537,284.058
-0.558,0.787,0.107,25.757,170.837,289.917
-0.328,0.810,-0.002,20.020,180.481,294.922
-0.023,0.852,-0.056,7.446,185.486,297.607
0.283,0.908,-0.033,-10.864,182.251,295.471
0.544,0.984,0.044,-30.762,171.143,284.607
0.703,1.040,0.149,-46.570,154.968,265.442
0.843,1.033,0.240,-55.298,138.855,247.375
0.973,1.006,0.317,-57.983,125.671,235.474
1.107,0.966,0.388,-56.885,114.563,225.830
1.249,0.938,0.465,-51.636,102.905,218.262
1.414,0.926,0.531,-44.617,89.905,211.914
1.596,0.882,0.602,-39.612,77.576,200.500
1.734,0.870,0.660,-34.180,63.110,181.946
1.849,0.826,0.694,-29.541,53.833,160.461
1.912,0.895,0.750,-43.335,45.715,135.742
1.902,0.834,0.761,-27.100,74.097,114.685
1.921,0.856,0.801,-10.925,62.256,80.566
1.853,0.816,0.846,-1.587,46.936,41.626
1.743,0.811,0.888,-1.221,43.396,15.991
1.632,0.793,0.916,0.549,43.945,2.930
1.550,0.779,0.937,2.380,39.307,-7.812
1.466,0.767,0.936,2.869,35.217,-18.860
1.374,0.759,0.921,5.371,28.381,-31.006
1.264,0.735,0.904,8.728,16.541,-45.349
1.154,0.705,0.891,11.719,3.601,-61.035
1.062,0.704,0.867,13.855,-7.690,-75.989
0.928,0.655,0.860,13.916,-18.372,-91.980
0.831,0.644,0.829,11.169,-29.419,-111.511
0.700,0.640,0.797,8.118,-28.259,-107.544
0.622,0.635,0.751,3.662,-25.085,-106.262
0.558,0.582,0.726,-1.099,-32.043,-117.554
0.525,0.591,0.687,-4.761,-38.086,-122.070
0.429,0.589,0.683,0.366,-42.480,-116.394
0.413,0.603,0.673,-0.183,-58.044,-122.009
0.399,0.603,0.675,-4.028,-68.665,-129.395
0.349,0.586,0.704,-8.728,-75.134,-133.423
0.297,0.576,0.726,-10.681,-79.834,-138.000
0.263,0.569,0.762,-11.108,-81.482,-142.639
0.222,0.571,0.805,-9.216,-78.735,-143.005
0.191,0.531,0.839,-8.423,-74.341,-141.907
0.181,0.506,0.849,-5.859,-69.885,-138.611
0.206,0.512,0.839,-1.282,-68.542,-134.644
0.212,0.506,0.824,0.854,-70.984,-133.606
0.189,0.504,0.816,1.465,-76.111,-133.850
0.166,0.507,0.805,0.916,-81.116,-134.033
0.141,0.506,0.791,-1.404,-84.900,-134.155
0.104,0.503,0.777,-5.493,-89.111,-134.583
0.070,0.500,0.770,-9.583,-93.140,-134.338
0.032,0.491,0.770,-14.038,-97.412,-132.080
-0.001,0.467,0.790,-18.005,-101.318,-129.395
-0.041,0.519,0.803,-18.677,-105.591,-127.075
-0.075,0.494,0.832,-17.029,-108.337,-125.732
-0.128,0.522,0.873,-13.000,-107.910,-122.559
-0.124,0.486,0.894,-6.775,-104.126,-116.943
-0.142,0.505,0.918,1.099,-98.877,-109.924
-0.133,0.486,0.910,6.958,-91.980,-105.347
-0.134,0.466,0.887,11.230,-84.717,-102.234
-0.143,0.458,0.849,13.855,-79.529,-99.487
-0.155,0.453,0.809,13.184,-76.599,-97.412
-0.174,0.445,0.776,10.193,-76.294,-95.093
-0.194,0.429,0.750,6.226,-77.332,-92.224
-0.208,0.417,0.726,1.465,-79.712,-88.501
-0.223,0.415,0.715,-3.540,-82.458,-84.778
-0.232,0.411,0.721,-8.606,-83.618,-80.688
-0.247,0.402,0.751,-13.611,-82.764,-77.759
-0.237,0.408,0.790,-15.686,-78.735,-75.439
-0.217,0.425,0.824,-15.930,-72.327,-74.402
-0.205,0.428,0.854,-15.747,-65.125,-75.684
-0.199,0.436,0.880,-13.977,-57.190,-77.271
-0.186,0.441,0.898,-11.475,-49.500,-77.454
-0.186,0.438,0.902,-9.216,-42.786,-77.637
-0.189,0.438,0.889,-6.470,-37.231,-77.087
-0.189,0.429,0.868,-4.333,-33.875,-75.500
-0.198,0.411,0.855,-3.601,-33.081,-73.120
-0.208,0.403,0.834,-3.357,-33.569,-70.190
-0.201,0.391,0.825,-4.333,-34.485,-66.406
-0.196,0.385,0.804,-6.104,-38.452,-70.496
-0.212,0.407,0.809,-8.240,-36.682,-59.204
-0.193,0.403,0.816,-11.353,-33.203,-51.697
-0.167,0.416,0.832,-16.907,-36.438,-54.138
-0.161,0.409,0.865,-20.935,-36.743,-52.002
-0.169,0.441,0.892,-23.499,-36.133,-51.575
-0.160,0.435,0.912,-24.780,-36.072,-52.063
-0.167,0.444,0.933,-23.865,-35.400,-50.903
-0.185,0.438,0.947,-20.142,-33.630,-48.706
-0.187,0.439,0.945,-14.893,-31.555,-45.654
-0.193,0.444,0.931,-8.057,-29.907,-41.687
-1.632,1.120,0.712,28.137,64.270,131.287
-1.755,1.195,0.593,26.672,74.341,159.302
-1.883,1.241,0.490,20.630,83.679,184.631
-1.933,1.251,0.428,9.399,93.933,207.642
-1.908,1.232,0.427,-0.610,104.858,229.065
-1.838,1.203,0.407,-4.150,120.178,248.230
-1.744,1.173,0.380,-2.075,139.954,261.292
-1.634,1.141,0.307,4.822,163.757,269.592
-1.503,1.153,0.208,11.902,191.528,278.076
-1.320,1.182,0.144,15.259,218.506,290.588
-1.044,1.223,0.093,16.235,238.220,302.063
-0.785,1.222,0.049,13.550,244.141,306.152
-0.598,1.239,0.018,8.789,237.366,308.594
-0.344,1.245,-0.071,3.479,226.074,312.805
-0.064,1.246,-0.187,-6.592,212.219,317.078
0.156,1.279,-0.248,-19.287,196.716,318.054
0.387,1.282,-0.241,-32.104,185.669,313.660
0.596,1.304,-0.205,-42.236,180.481,306.213
0.846,1.277,-0.149,-47.852,178.650,295.166
1.178,1.224,-0.061,-51.697,175.415,285.156
1.515,1.182,0.015,-52.002,169.006,275.024
1.781,1.162,0.123,-50.415,154.724,260.559
2.027,1.151,0.254,-48.218,136.841,241.150
2.266,1.125,0.395,-46.265,119.934,215.576
2.428,1.078,0.527,-44.189,102.661,183.472
2.534,0.966,0.671,-41.809,79.346,144.226
2.564,0.995,0.715,-46.875,62.439,112.793
2.500,0.920,0.802,-38.574,75.562,96.558
2.523,0.867,0.918,-28.564,52.063,56.824
2.429,0.841,0.994,-14.648,27.649,10.193
2.252,0.829,1.022,-6.104,14.648,-28.076
2.041,0.836,1.011,-1.587,16.968,-48.279
1.828,0.853,0.995,3.967,19.897,-61.707
1.641,0.846,0.953,11.047,14.954,-80.811
1.448,0.839,0.904,19.531,8.789,-99.365
1.247,0.832,0.848,27.405,-1.892,-116.394
1.077,0.815,0.787,32.715,-19.775,-131.653
0.884,0.772,0.726,33.936,-41.504,-153.687
0.721,0.755,0.675,31.189,-59.998,-158.508
0.538,0.759,0.629,24.353,-65.857,-149.719
0.431,0.755,0.606,17.517,-72.998,-153.625
0.285,0.727,0.627,12.939,-81.970,-160.950
0.244,0.752,0.623,11.536,-78.674,-155.090
0.140,0.730,0.638,17.456,-76.111,-146.362
0.142,0.708,0.642,16.235,-86.487,-150.818
0.125,0.705,0.654,14.893,-93.323,-151.978
0.069,0.703,0.674,13.306,-98.328,-148.865
0.071,0.685,0.687,11.292,-101.135,-146.790
0.080,0.676,0.698,9.033,-101.746,-142.883
0.072,0.668,0.707,6.897,-101.685,-139.465
0.079,0.649,0.716,4.700,-100.342,-138.550
0.086,0.618,0.735,1.709,-98.877,-138.123
0.087,0.602,0.748,0.122,-96.558,-136.414
0.096,0.578,0.750,-2.441,-93.018,-135.193
0.088,0.548,0.759,-5.310,-88.928,-135.071
0.060,0.531,0.784,-7.080,-84.900,-135.437
0.013,0.527,0.821,-6.775,-80.872,-135.071
0.008,0.520,0.835,-2.930,-76.355,-132.385
0.018,0.516,0.819,2.197,-72.815,-129.333
0.022,0.516,0.790,6.836,-73.547,-126.648
0.011,0.523,0.769,9.888,-78.430,-124.023
-0.003,0.517,0.755,10.498,-84.106,-120.667
-0.013,0.504,0.750,9.827,-87.524,-115.601
-0.005,0.487,0.746,7.629,-88.074,-109.863
0.001,0.477,0.747,3.662,-86.487,-106.079
-0.011,0.478,0.759,-1.282,-83.862,-104.004
-0.022,0.480,0.795,-5.981,-80.750,-103.455
-0.040,0.480,0.836,-8.423,-76.233,-103.210
-0.069,0.480,0.871,-7.935,-68.848,-102.295
-0.093,0.474,0.883,-4.517,-61.829,-100.342
-0.112,0.463,0.872,0.305,-57.983,-97.107
-0.139,0.454,0.847,4.944,-57.495,-93.079
-0.169,0.445,0.820,7.812,-58.899,-88.013
-0.182,0.450,0.790,8.667,-63.049,-81.848
-0.182,0.444,0.752,6.104,-70.374,-76.355
-0.187,0.431,0.744,1.526,-77.087,-72.021
-0.201,0.427,0.746,-2.258,-80.200,-68.359
-0.206,0.417,0.755,-5.981,-79.468,-65.125
-0.203,0.416,0.778,-9.766,-73.547,-62.683
-0.203,0.414,0.809,-11.841,-63.721,-61.218
-0.186,0.410,0.839,-12.512,-52.856,-60.364
-0.162,0.407,0.856,-12.085,-42.786,-60.974
-0.160,0.404,0.863,-10.254,-35.645,-62.866
-0.179,0.391,0.874,-8.545,-32.288,-65.674
-0.183,0.406,0.856,-6.470,-33.569,-73.853
-0.213,0.426,0.860,-3.662,-28.564,-61.401
-0.199,0.432,0.851,-3.235,-25.330,-55.176
-0.176,0.445,0.836,-6.653,-29.907,-56.824
-0.182,0.445,0.835,-8.972,-31.311,-51.453
-0.171,0.441,0.844,-12.939,-33.264,-47.546
-0.169,0.442,0.853,-15.808,-36.133,-45.227
-0.168,0.437,0.863,-17.456,-37.048,-41.748
-0.153,0.430,0.880,-18.250,-36.865,-38.818
-0.129,0.430,0.897,-17.151,-35.522,-36.743
-0.122,0.436,0.917,-14.221,-33.203,-36.560
-0.111,0.436,0.933,-10.193,-30.151,-37.109
-0.098,0.445,0.940,-5.493,-26.489,-37.659
-0.077,0.455,0.942,-0.366,-22.278,-38.879
-0.074,0.458,0.937,3.601,-18.311,-41.260
-0.079,0.447,0.929,5.676,-15.320,-44.006
-1.419,1.071,0.797,34.851,66.040,141.357
-1.535,1.122,0.743,34.424,87.158,150.574
-1.598,1.154,0.680,30.090,106.201,157.532
-1.653,1.190,0.641,24.170,117.920,168.640
-1.659,1.168,0.592,18.005,122.803,187.439
-1.556,1.162,0.525,12.573,123.352,213.013
-1.409,1.156,0.447,9.521,120.178,239.929
-1.251,1.143,0.358,8.057,114.807,261.963
-1.060,1.105,0.286,6.226,111.877,276.123
-0.877,1.059,0.258,8.179,116.882,288.147
-0.670,1.060,0.197,16.418,134.033,298.462
-0.445,1.039,0.112,24.170,154.419,301.331
-0.222,1.012,0.050,24.780,171.082,297.363
-0.026,0.998,0.040,19.531,182.983,289.856
0.146,0.980,0.045,13.367,193.970,283.936
0.334,0.966,0.052,8.118,204.651,278.992
0.564,0.926,0.053,2.808,210.205,273.865
0.803,0.907,0.099,-3.540,208.923,269.897
1.058,0.891,0.161,-8.911,201.599,265.381
1.341,0.870,0.246,-13.977,189.636,257.690
1.608,0.855,0.347,-15.442,171.448,248.047
1.805,0.855,0.460,-14.282,149.170,231.384
1.955,0.855,0.532,-10.376,128.906,208.313
2.058,0.831,0.603,-8.057,111.023,179.321
2.121,0.790,0.652,-5.981,96.130,147.766
2.138,0.736,0.703,-3.540,81.360,113.281
2.079,0.681,0.746,-3.174,64.514,77.881
2.147,0.695,0.716,-11.719,64.270,54.077
2.036,0.652,0.753,-8.423,76.477,37.842
2.041,0.618,0.817,-10.498,44.495,2.563
1.962,0.650,0.826,-6.653,22.644,-28.870
1.851,0.675,0.836,-8.667,15.137,-49.133
1.689,0.693,0.856,-8.545,8.057,-59.082
1.548,0.717,0.869,-7.629,-6.104,-70.313
1.409,0.732,0.880,-5.127,-15.381,-80.139
1.269,0.745,0.863,-0.671,-23.254,-88.623
1.130,0.737,0.840,4.395,-34.668,-98.328
1.012,0.706,0.818,9.949,-49.255,-108.826
0.875,0.631,0.810,16.724,-64.209,-117.310
0.827,0.617,0.749,21.851,-78.369,-130.127
0.681,0.631,0.705,28.870,-83.923,-125.854
0.593,0.577,0.672,28.687,-93.262,-128.540
0.524,0.547,0.642,27.161,-101.257,-135.925
0.474,0.512,0.610,26.611,-108.032,-141.174
0.419,0.554,0.580,24.170,-114.685,-145.813
0.369,0.520,0.554,18.311,-117.249,-148.621
0.298,0.505,0.567,8.423,-118.042,-149.414
0.244,0.483,0.577,-1.404,-117.676,-151.917
0.156,0.467,0.616,-9.949,-116.943,-154.297
0.078,0.476,0.663,-14.893,-114.746,-154.480
0.004,0.490,0.725,-18.005,-109.741,-150.513
-0.020,0.499,0.769,-17.395,-103.455,-144.043
-0.030,0.498,0.803,-14.526,-97.473,-136.963
-0.047,0.513,0.812,-8.911,-94.727,-130.249
-0.033,0.497,0.813,-3.601,-95.581,-127.625
-0.057,0.493,0.811,1.343,-98.022,-123.047
-0.071,0.471,0.782,3.723,-100.220,-120.850
-0.080,0.451,0.762,3.296,-101.807,-120.117
-0.099,0.437,0.743,1.099,-100.159,-118.103
-0.128,0.424,0.722,-2.563,-95.642,-117.249
-0.149,0.420,0.707,-7.446,-91.125,-117.310
-0.195,0.413,0.713,-12.695,-87.341,-116.516
-0.223,0.435,0.739,-16.541,-84.412,-113.220
-0.263,0.419,0.770,-19.592,-81.970,-107.239
-0.282,0.445,0.783,-19.287,-80.078,-100.952
-0.296,0.443,0.790,-18.311,-78.369,-94.177
-0.302,0.441,0.797,-17.090,-77.271,-87.585
-0.292,0.460,0.800,-15.015,-74.402,-82.275
-0.282,0.469,0.802,-14.587,-69.153,-77.820
-0.251,0.461,0.811,-15.076,-62.500,-75.378
-0.234,0.452,0.830,-17.517,-55.908,-75.867
-0.232,0.457,0.834,-18.250,-49.744,-77.393
-0.238,0.452,0.832,-18.250,-43.518,-79.529
-0.243,0.427,0.830,-18.250,-39.246,-80.505
-0.255,0.454,0.816,-17.212,-36.560,-79.590
-0.287,0.448,0.824,-17.334,-34.607,-75.562
-0.314,0.435,0.842,-17.700,-33.875,-68.726
-0.296,0.439,0.831,-15.137,-32.654,-60.547
-0.293,0.427,0.834,-13.245,-32.532,-54.749
-0.229,0.447,0.822,-12.024,-34.424,-55.542
-0.263,0.450,0.841,-10.315,-31.921,-39.856
-0.228,0.438,0.854,-12.085,-30.823,-39.307
-0.198,0.465,0.862,-13.062,-31.006,-40.222
-0.179,0.475,0.872,-13.733,-27.283,-38.696
-0.190,0.461,0.900,-14.954,-25.269,-41.565
-0.203,0.461,0.915,-13.367,-24.048,-43.274
-0.210,0.460,0.915,-10.193,-21.729,-43.152
-0.220,0.459,0.910,-7.141,-19.897,-41.870
-0.234,0.461,0.904,-3.845,-19.104,-38.757
-0.228,0.456,0.889,-0.671,-18.616,-35.034
-0.208,0.456,0.876,0.793,-19.287,-31.067
-0.186,0.461,0.869,0.549,-21.179,-28.564
-0.193,0.453,0.870,-0.732,-22.766,-27.710
-0.195,0.454,0.878,-3.357,-24.841,-26.001
-0.189,0.458,0.882,-5.981,-24.902,-23.010
-0.167,0.468,0.883,-7.690,-22.766,-21.057
-0.156,0.472,0.891,-8.667,-21.667,-20.996
-0.156,0.470,0.903,-9.216,-21.851,-22.217
-0.153,0.467,0.912,-8.179,-20.142,-23.621
-0.159,0.462,0.914,-5.859,-17.334,-25.085
-1.549,1.045,0.733,5.676,43.457,120.300
-1.627,1.117,0.702,17.578,70.374,131.653
-1.635,1.115,0.650,21.301,92.834,147.095
-1.577,1.065,0.648,24.658,117.065,164.917
-1.505,1.082,0.593,30.029,134.277,179.810
-1.406,1.057,0.555,32.593,147.766,198.242
-1.269,1.020,0.510,33.813,152.222,214.966
-1.118,1.032,0.448,35.645,150.574,229.370
-0.942,1.020,0.395,34.790,151.306,244.995
-0.755,1.037,0.364,30.151,154.907,259.888
-0.529,1.047,0.336,24.963,158.508,272.461
-0.309,1.053,0.310,18.616,162.720,281.006
-0.126,1.066,0.291,12.390,166.687,284.546
0.079,1.032,0.273,7.446,171.570,286.560
0.272,1.053,0.243,7.202,181.396,290.344
0.461,1.068,0.219,6.531,194.641,291.687
0.698,0.992,0.221,5.554,205.505,288.696
0.886,1.012,0.206,11.108,213.257,285.217
1.100,0.986,0.195,15.869,215.210,274.231
1.342,0.965,0.198,15.198,206.848,259.277
1.587,0.931,0.250,9.888,187.195,243.103
1.791,0.891,0.338,4.150,158.752,222.107
1.966,0.857,0.453,-0.366,125.488,199.646
2.091,0.802,0.572,-2.808,91.553,178.040
2.191,0.750,0.670,-1.099,58.594,155.334
2.273,0.650,0.751,5.493,29.236,128.662
2.204,0.669,0.734,6.958,0.305,93.689
2.229,0.576,0.786,12.329,23.437,78.430
2.137,0.496,0.809,18.494,13.367,43.335
2.079,0.436,0.806,19.592,-8.545,-0.244
1.968,0.434,0.761,19.165,-11.963,-34.546
1.810,0.416,0.756,13.245,-7.507,-58.594
1.613,0.442,0.760,7.263,-11.475,-75.684
1.457,0.450,0.751,1.587,-16.418,-89.294
1.282,0.449,0.731,-1.648,-18.433,-99.426
1.069,0.491,0.723,-3.784,-24.475,-110.779
0.868,0.494,0.727,-3.906,-33.875,-121.643
0.691,0.543,0.733,-0.854,-41.748,-125.000
0.532,0.522,0.722,3.052,-50.415,-133.606
0.406,0.575,0.685,3.845,-58.411,-134.888
0.267,0.620,0.653,1.770,-58.350,-122.925
0.197,0.594,0.643,-3.357,-62.012,-120.483
0.136,0.582,0.643,-8.240,-71.899,-123.108
0.091,0.567,0.643,-12.024,-82.458,-125.610
0.046,0.582,0.661,-17.334,-91.553,-126.892
-0.004,0.558,0.704,-23.315,-94.604,-123.596
-0.047,0.540,0.763,-26.917,-93.201,-117.859
-0.064,0.528,0.802,-25.208,-89.417,-112.976
-0.047,0.522,0.822,-20.447,-83.557,-109.131
-0.019,0.527,0.840,-15.442,-77.454,-106.323
0.006,0.523,0.848,-10.437,-72.632,-105.469
0.009,0.519,0.842,-6.165,-69.946,-106.262
0.028,0.514,0.831,-3.479,-69.702,-107.300
0.038,0.506,0.822,-3.235,-73.669,-108.337
0.012,0.490,0.808,-5.554,-81.482,-110.718
-0.031,0.468,0.805,-8.362,-91.064,-112.061
-0.061,0.483,0.797,-10.498,-99.243,-111.023
-0.083,0.483,0.804,-13.245,-102.722,-105.774
-0.106,0.476,0.823,-15.320,-101.746,-98.389
-0.103,0.485,0.847,-15.564,-97.656,-90.088
-0.081,0.488,0.869,-14.404,-92.407,-82.825
-0.061,0.492,0.889,-12.756,-87.769,-78.186
-0.067,0.470,0.905,-9.644,-84.290,-77.393
-0.072,0.453,0.922,-3.784,-81.543,-81.482
-0.114,0.490,0.922,-0.488,-78.796,-83.740
-0.143,0.473,0.941,1.648,-74.158,-79.102
-0.150,0.451,0.946,4.333,-70.068,-74.951
-0.134,0.465,0.923,9.766,-66.589,-73.120
-0.133,0.472,0.884,13.000,-64.331,-73.792
-0.156,0.454,0.861,11.902,-63.782,-75.623
-0.168,0.450,0.852,10.132,-64.331,-76.416
-0.166,0.440,0.849,7.080,-63.538,-76.477
-0.176,0.399,0.859,3.113,-62.012,-77.332
-0.203,0.390,0.864,1.404,-59.509,-75.928
-0.198,0.381,0.866,-0.366,-56.213,-73.914
-0.202,0.365,0.870,-3.357,-52.551,-71.899
-0.211,0.370,0.873,-4.944,-48.218,-69.702
-0.217,0.382,0.869,-5.920,-43.762,-67.688
-0.223,0.387,0.866,-6.775,-39.612,-65.063
-0.226,0.396,0.863,-7.385,-36.194,-61.829
-0.215,0.407,0.865,-7.874,-33.691,-58.777
-0.215,0.407,0.859,-8.484,-31.982,-56.152
-0.208,0.413,0.857,-8.911,-30.762,-54.504
-0.195,0.419,0.855,-9.155,-29.846,-53.345
-0.200,0.410,0.868,-8.362,-28.503,-55.298
-0.159,0.429,0.875,-6.042,-26.245,-54.993
-0.187,0.419,0.886,-4.456,-22.461,-47.668
-0.163,0.402,0.889,-4.089,-18.433,-51.819
-0.163,0.391,0.879,-2.319,-17.273,-54.749
-0.156,0.405,0.876,-0.671,-15.320,-56.030
-0.165,0.384,0.887,-0.732,-13.123,-54.749
-0.158,0.354,0.882,1.465,-12.268,-53.162
-0.175,0.422,0.850,3.845,-13.428,-51.819
-0.195,0.401,0.850,1.160,-14.587,-43.213
-0.186,0.387,0.860,-1.953,-17.212,-34.607
-0.172,0.401,0.855,-2.747,-21.240,-28.992
-0.167,0.404,0.850,-4.150,-23.560,-25.085
-0.142,0.414,0.853,-6.653,-25.513,-22.583
-0.130,0.414,0.859,-8.728,-27.039,-22.156
-0.129,0.411,0.865,-9.644,-26.672,-23.315
1.981,0.609,0.740,-1.526,69.275,153.320
2.040,0.613,0.790,5.493,64.087,127.380
2.044,0.571,0.847,11.963,61.096,96.680
2.064,0.608,0.823,14.465,62.500,67.932
2.001,0.583,0.846,23.010,75.928,48.401
1.947,0.595,0.842,27.527,56.641,21.118
1.885,0.544,0.840,27.893,37.964,-4.944
1.766,0.543,0.844,24.170,26.733,-19.287
1.633,0.562,0.838,20.142,12.207,-30.640
1.503,0.590,0.823,16.357,-5.920,-41.931
1.374,0.588,0.824,11.658,-22.095,-52.124
1.197,0.616,0.821,8.728,-33.447,-58.350
1.059,0.599,0.818,8.118,-41.565,-64.087
0.938,0.592,0.790,11.169,-47.485,-69.885
0.821,0.590,0.751,14.282,-51.147,-77.759
0.726,0.553,0.725,19.592,-55.176,-84.534
0.673,0.518,0.698,21.545,-67.810,-96.680
0.594,0.513,0.652,19.653,-75.256,-99.426
0.519,0.454,0.635,13.428,-76.965,-104.736
0.434,0.440,0.632,7.812,-81.238,-111.328
0.369,0.446,0.643,4.089,-85.388,-116.089
0.322,0.456,0.668,0.671,-86.060,-117.859
0.289,0.444,0.686,-2.991,-82.886,-117.981
0.256,0.436,0.700,-4.883,-79.041,-118.225
0.231,0.420,0.714,-6.409,-77.332,-118.835
0.207,0.415,0.729,-7.996,-77.698,-119.019
0.178,0.397,0.751,-9.644,-79.407,-119.019
0.136,0.372,0.768,-10.742,-82.642,-119.263
0.132,0.366,0.784,-10.498,-86.121,-118.469
0.094,0.410,0.798,-9.277,-88.989,-116.089
0.101,0.404,0.798,-8.972,-90.881,-115.906
0.067,0.427,0.813,-8.057,-92.224,-114.685
0.046,0.415,0.811,-7.996,-91.858,-114.563
0.029,0.434,0.801,-7.935,-91.003,-113.770
0.010,0.421,0.793,-11.902,-89.600,-113.586
-0.018,0.407,0.799,-15.503,-87.036,-111.206
-0.059,0.395,0.812,-17.761,-83.130,-107.910
-0.072,0.390,0.826,-19.043,-79.529,-104.126
-0.061,0.401,0.845,-19.470,-77.698,-100.525
-0.077,0.424,0.844,-18.372,-78.369,-98.206
-0.102,0.411,0.852,-16.235,-80.750,-96.130
-0.137,0.418,0.853,-13.733,-84.717,-91.919
-0.131,0.386,0.859,-10.620,-86.609,-85.632
-0.148,0.426,0.851,-6.592,-85.938,-79.895
-0.154,0.380,0.847,-2.197,-83.801,-79.712
-0.151,0.411,0.828,2.380,-81.116,-82.825
-0.152,0.378,0.803,4.028,-75.195,-81.421
-0.174,0.373,0.794,2.930,-68.481,-80.811
-0.174,0.372,0.767,0.916,-64.209,-83.679
-0.194,0.385,0.751,-2.930,-61.523,-85.327
-0.184,0.386,0.739,-11.414,-56.458,-85.510
-0.211,0.396,0.757,-18.494,-52.063,-85.144
-0.261,0.421,0.792,-24.109,-48.035,-83.862
-0.282,0.408,0.836,-26.672,-44.434,-80.017
-0.313,0.450,0.875,-25.879,-40.466,-71.106
-0.280,0.453,0.891,-22.644,-36.560,-62.744
-0.263,0.442,0.909,-20.081,-34.485,-55.969
-0.248,0.438,0.907,-16.113,-32.593,-50.415
-0.223,0.434,0.907,-12.451,-31.128,-46.814
-0.235,0.393,0.904,-8.301,-30.212,-48.096
-0.183,0.434,0.887,-1.282,-29.236,-45.593
-0.204,0.442,0.877,-1.160,-27.893,-38.391
-0.183,0.420,0.867,-4.150,-22.339,-39.490
-0.187,0.400,0.879,-7.935,-22.034,-43.823
-0.193,0.413,0.875,-9.827,-23.132,-46.692
-0.189,0.428,0.853,-10.132,-23.560,-48.035
-0.203,0.416,0.856,-12.817,-22.827,-45.776
-0.235,0.440,0.866,-14.526,-22.156,-39.246
-0.234,0.442,0.895,-16.663,-22.766,-33.020
-0.223,0.455,0.914,-16.296,-24.536,-26.550
-0.209,0.451,0.929,-13.000,-26.489,-21.729
-0.211,0.442,0.944,-11.719,-28.625,-18.433
-0.200,0.437,0.941,-8.057,-26.489,-15.137
-0.189,0.424,0.930,-3.723,-22.461,-13.611
-0.178,0.417,0.909,-0.122,-18.433,-12.939
-0.158,0.411,0.890,2.319,-14.954,-13.062
-0.128,0.407,0.876,2.502,-12.512,-14.160
-0.121,0.401,0.868,1.343,-11.108,-16.724
-0.136,0.392,0.869,-0.244,-10.742,-19.897
-0.148,0.383,0.866,-1.404,-10.559,-21.423
-0.152,0.386,0.863,-2.686,-10.315,-21.851
-0.146,0.395,0.865,-4.150,-10.315,-21.362
-0.151,0.398,0.875,-5.249,-11.108,-21.240
-0.160,0.427,0.876,-5.554,-12.390,-20.752
-0.161,0.422,0.886,-6.775,-13.428,-19.653
-0.156,0.426,0.897,-7.385,-13.550,-17.883
-0.155,0.425,0.904,-6.958,-12.268,-16.724
-0.147,0.383,0.915,-5.859,-10.498,-16.663
-0.169,0.441,0.909,-3.479,-8.301,-15.991
-0.134,0.423,0.896,-3.235,-6.897,-18.738
-0.136,0.434,0.894,-5.249,-5.676,-18.494
-0.141,0.418,0.902,-5.432,-4.089,-17.395
-0.154,0.411,0.915,-5.920,-4.456,-17.273
-0.152,0.411,0.923,-5.005,-4.272,-15.869
-0.146,0.408,0.928,-2.319,-3.113,-13.550
-0.131,0.404,0.925,0.488,-2.625,-11.230
-0.140,0.435,0.916,2.014,-2.686,-8.179
-0.130,0.409,0.905,1.343,-3.662,-7.019
-0.121,0.402,0.907,-0.427,-4.395,-5.554
-0.103,0.414,0.901,-0.305,-4.150,-4.456
-1.472,1.136,0.759,34.180,43.274,125.549
-1.597,1.251,0.680,40.588,65.063,138.123
-1.729,1.336,0.608,38.696,84.229,147.278
-1.817,1.280,0.559,29.114,98.938,163.635
-1.791,1.208,0.479,23.804,107.117,187.988
-1.688,1.195,0.334,23.926,111.816,212.769
-1.572,1.167,0.208,19.897,112.000,236.084
-1.493,1.151,0.146,10.803,109.985,254.272
-1.348,1.120,0.129,-0.122,114.502,271.973
-1.130,1.099,0.142,-6.897,131.470,289.551
-0.824,1.094,0.145,-5.493,157.532,304.687
-0.473,1.099,0.131,-0.061,187.012,314.148
-0.172,1.079,0.129,2.808,212.097,315.063
0.119,1.024,0.153,2.625,227.661,303.589
0.390,0.966,0.156,3.296,236.267,298.462
0.689,0.952,0.133,4.150,235.901,299.255
0.908,0.880,0.157,-0.549,224.609,298.096
1.142,0.808,0.218,-5.493,206.787,290.100
1.362,0.794,0.310,-8.667,187.561,279.053
1.558,0.792,0.423,-11.169,169.189,265.503
1.759,0.779,0.536,-13.916,153.076,246.765
1.935,0.750,0.635,-15.198,138.794,221.436
2.050,0.704,0.726,-15.259,124.146,187.866
2.111,0.678,0.807,-12.573,109.619,151.184
2.169,0.637,0.884,-8.850,97.046,117.981
2.212,0.592,0.934,-3.845,84.717,86.609
2.125,0.593,0.915,-4.089,60.852,53.406
2.149,0.477,0.929,-4.761,73.364,42.603
2.028,0.470,0.944,0.183,52.368,17.212
1.954,0.417,0.944,1.282,12.878,-17.761
1.800,0.487,0.900,4.761,-2.869,-41.260
1.644,0.493,0.886,2.380,-4.822,-54.871
1.468,0.495,0.887,0.244,-10.864,-64.697
1.340,0.526,0.855,0.244,-17.456,-76.416
1.189,0.549,0.832,0.916,-20.386,-88.806
1.036,0.577,0.815,2.014,-24.536,-100.952
0.887,0.611,0.804,3.174,-31.616,-113.464
0.759,0.590,0.820,4.883,-39.429,-121.948
0.655,0.541,0.804,10.254,-48.584,-138.428
0.544,0.603,0.750,13.794,-52.673,-135.437
0.458,0.571,0.717,13.550,-50.293,-125.366
0.409,0.532,0.695,11.169,-55.115,-127.258
0.354,0.515,0.668,10.071,-63.232,-131.348
0.303,0.494,0.657,7.629,-71.106,-133.728
0.260,0.489,0.658,3.662,-77.637,-134.583
0.229,0.472,0.674,-1.343,-80.383,-133.179
0.185,0.477,0.694,-6.653,-80.627,-130.981
0.145,0.463,0.725,-9.827,-79.102,-126.953
0.134,0.440,0.740,-11.963,-77.515,-123.108
0.116,0.460,0.755,-11.963,-76.843,-118.469
0.112,0.458,0.758,-13.245,-77.454,-117.188
0.084,0.449,0.782,-15.686,-80.078,-115.356
0.060,0.449,0.804,-15.381,-83.008,-113.708
0.047,0.441,0.815,-13.977,-82.947,-112.183
0.047,0.435,0.819,-11.230,-81.299,-111.145
0.052,0.437,0.818,-8.911,-78.796,-111.633
0.054,0.430,0.823,-7.751,-74.463,-113.831
0.045,0.414,0.834,-7.080,-68.420,-115.662
0.047,0.408,0.841,-6.042,-61.462,-116.638
0.057,0.406,0.843,-5.066,-55.054,-117.737
0.055,0.396,0.834,-4.211,-51.941,-119.019
0.043,0.391,0.819,-4.150,-52.795,-119.080
0.021,0.359,0.809,-6.042,-57.739,-117.737
-0.015,0.361,0.793,-7.874,-66.162,-115.479
-0.054,0.348,0.789,-9.888,-74.890,-110.779
-0.082,0.367,0.789,-11.658,-82.214,-103.882
-0.101,0.353,0.800,-11.292,-86.792,-96.802
-0.103,0.354,0.803,-11.108,-88.867,-91.858
-0.122,0.397,0.790,-11.536,-86.060,-83.862
-0.105,0.350,0.794,-15.320,-79.590,-79.956
-0.108,0.367,0.808,-18.433,-73.486,-80.322
-0.120,0.386,0.819,-18.921,-65.735,-82.886
-0.148,0.392,0.837,-19.348,-57.556,-86.548
-0.161,0.402,0.851,-18.860,-51.514,-88.440
-0.169,0.404,0.865,-16.541,-47.241,-89.111
-0.174,0.406,0.864,-13.489,-43.945,-88.257
-0.186,0.397,0.851,-10.254,-42.664,-87.158
-0.219,0.388,0.829,-8.118,-43.335,-85.815
-0.249,0.389,0.815,-6.836,-43.884,-82.336
-0.279,0.405,0.806,-6.592,-42.969,-76.721
-0.322,0.393,0.822,-6.897,-40.649,-71.167
-0.270,0.440,0.794,-7.996,-39.856,-70.374
-0.296,0.441,0.824,-8.911,-32.349,-48.889
-0.267,0.438,0.838,-12.695,-30.884,-46.692
-0.265,0.468,0.858,-16.235,-31.921,-46.387
-0.249,0.472,0.891,-18.494,-28.076,-41.077
-0.242,0.474,0.923,-20.569,-26.978,-40.955
-0.222,0.488,0.938,-18.982,-26.062,-42.297
-0.215,0.489,0.958,-16.785,-25.940,-42.480
-0.219,0.478,0.972,-13.794,-25.269,-42.786
-0.216,0.480,0.971,-8.850,-23.193,-41.809
-0.232,0.465,0.960,-4.456,-21.851,-39.612
-0.252,0.456,0.940,-0.366,-21.729,-35.950
-0.261,0.446,0.911,2.991,-22.217,-30.701
-0.282,0.424,0.884,4.700,-24.536,-23.804
-0.302,0.413,0.862,4.578,-27.649,-15.747
-0.308,0.407,0.845,3.052,-28.564,-7.690
-0.281,0.408,0.835,0.732,-26.062,-1.587
-0.216,0.423,0.840,-2.502,-21.362,2.319
-0.184,0.428,0.862,-5.981,-16.907,0.854
1.803,0.869,0.671,-37.598,63.110,207.764
1.861,0.871,0.754,-36.316,55.481,174.805
1.925,0.853,0.832,-33.264,53.162,134.705
1.911,0.852,0.878,-28.748,55.725,96.191
1.790,0.873,0.945,-25.085,49.438,57.068
1.779,0.802,0.961,-26.428,75.073,36.316
1.646,0.846,1.010,-11.108,72.510,14.526
1.610,0.787,1.043,2.869,42.786,-21.545
1.502,0.761,1.036,12.634,24.841,-43.579
1.346,0.807,1.000,17.700,20.691,-48.279
1.199,0.799,0.974,23.499,9.338,-55.664
1.086,0.766,0.962,26.184,-3.601,-66.895
0.981,0.738,0.925,30.701,-6.042,-72.144
0.868,0.777,0.856,36.560,-7.507,-76.477
0.775,0.751,0.803,38.147,-14.832,-87.769
0.681,0.700,0.769,36.133,-27.283,-105.652
0.556,0.687,0.729,32.715,-32.532,-102.844
0.475,0.648,0.699,27.527,-34.363,-102.600
0.401,0.602,0.684,24.109,-39.734,-109.192
0.331,0.569,0.672,23.132,-44.983,-115.112
0.287,0.543,0.667,22.156,-48.157,-118.042
0.260,0.522,0.675,18.555,-49.377,-118.530
0.228,0.506,0.688,14.526,-50.232,-119.080
0.195,0.491,0.711,11.292,-51.758,-120.239
0.193,0.488,0.723,9.216,-51.453,-118.652
0.186,0.490,0.747,8.728,-54.382,-120.728
0.186,0.471,0.775,6.104,-57.922,-126.160
0.139,0.508,0.796,6.653,-56.030,-126.953
0.132,0.482,0.806,5.859,-53.345,-128.296
0.122,0.476,0.807,4.761,-51.575,-127.930
0.107,0.455,0.804,4.639,-49.927,-125.549
0.077,0.465,0.810,5.066,-49.500,-123.840
0.078,0.446,0.821,3.967,-49.255,-121.582
0.087,0.438,0.825,2.930,-50.110,-116.760
0.101,0.418,0.823,2.136,-52.307,-114.502
0.090,0.427,0.807,1.587,-55.847,-114.685
0.085,0.407,0.795,-0.854,-59.998,-115.906
0.073,0.399,0.806,-5.371,-65.186,-115.601
0.056,0.390,0.807,-9.338,-68.726,-113.037
0.082,0.384,0.847,-11.230,-71.228,-112.122
0.047,0.393,0.868,-14.282,-73.059,-107.422
0.032,0.406,0.892,-16.174,-70.251,-103.821
0.029,0.401,0.910,-15.686,-68.176,-100.098
-0.004,0.423,0.923,-12.634,-66.528,-94.116
-0.008,0.407,0.932,-7.996,-64.148,-89.844
-0.037,0.441,0.911,-3.418,-61.035,-84.290
-0.036,0.405,0.894,-1.587,-59.204,-83.923
-0.054,0.389,0.888,0.000,-57.434,-82.581
-0.071,0.387,0.873,2.563,-54.199,-81.970
-0.081,0.375,0.860,3.845,-50.781,-82.581
-0.076,0.360,0.854,3.357,-46.448,-81.909
-0.069,0.353,0.846,1.526,-41.870,-81.604
-0.048,0.354,0.840,-0.854,-37.964,-82.031
-0.032,0.357,0.845,-4.517,-34.424,-82.275
-0.026,0.357,0.851,-8.972,-32.776,-83.374
-0.038,0.364,0.854,-12.939,-33.142,-85.022
-0.055,0.375,0.862,-15.930,-34.790,-84.839
-0.080,0.382,0.885,-18.188,-36.865,-81.787
-0.106,0.385,0.896,-17.944,-38.635,-76.233
-0.101,0.410,0.899,-15.503,-40.710,-69.824
-0.098,0.392,0.900,-14.648,-43.091,-62.744
-0.101,0.394,0.889,-12.329,-46.875,-56.824
-0.105,0.389,0.872,-10.254,-50.720,-52.612
-0.108,0.386,0.858,-9.583,-53.589,-48.767
-0.096,0.378,0.851,-9.827,-53.650,-45.288
-0.075,0.380,0.842,-10.437,-51.086,-43.396
-0.055,0.381,0.829,-12.085,-46.875,-43.762
-0.037,0.376,0.832,-15.259,-41.931,-46.509
-0.021,0.376,0.837,-18.372,-36.804,-50.232
-0.014,0.380,0.836,-21.423,-31.799,-54.749
-0.030,0.385,0.843,-24.231,-27.710,-59.631
-0.088,0.372,0.872,-25.330,-25.391,-64.758
-0.074,0.396,0.878,-22.461,-24.353,-67.200
-0.148,0.421,0.907,-18.066,-21.973,-51.514
-0.117,0.411,0.917,-14.343,-21.240,-46.692
-0.115,0.408,0.913,-9.766,-25.696,-42.603
-0.099,0.422,0.897,-4.822,-31.494,-39.185
-0.087,0.432,0.876,-1.282,-36.560,-36.316
-0.078,0.431,0.855,-0.427,-40.588,-33.813
-0.088,0.412,0.846,-0.916,-43.518,-33.020
-0.094,0.403,0.842,-1.465,-44.250,-33.264
-0.103,0.389,0.840,-2.991,-41.931,-34.302
-0.100,0.383,0.836,-4.883,-37.109,-35.522
-0.088,0.382,0.834,-7.202,-31.189,-37.903
-0.099,0.377,0.846,-9.216,-25.513,-40.649
-0.123,0.380,0.869,-10.986,-21.423,-42.358
-0.127,0.392,0.885,-11.536,-18.250,-41.687
-0.120,0.396,0.898,-10.315,-16.785,-39.795
-0.120,0.404,0.906,-8.362,-16.968,-37.476
-0.123,0.418,0.913,-6.653,-18.311,-34.485
-0.109,0.431,0.918,-5.310,-20.264,-31.433
-0.102,0.434,0.919,-4.578,-21.423,-29.724
-0.103,0.427,0.926,-4.639,-22.156,-29.724
-0.101,0.423,0.925,-3.784,-21.790,-30.090
-0.107,0.422,0.920,-3.601,-21.240,-30.884
-0.100,0.412,0.917,-3.784,-20.081,-31.250
-0.102,0.404,0.916,-4.028,-19.348,-31.433
-0.109,0.395,0.916,-4.211,-17.761,-31.189
-0.109,0.390,0.906,-2.930,-15.503,-30.701
-0.116,0.385,0.899,-3.601,-14.771,-29.541
-1.717,0.935,0.610,-10.559,92.529,218.567
-1.645,0.948,0.593,-5.981,127.197,223.083
-1.536,0.922,0.542,2.502,168.030,224.792
-1.386,0.900,0.467,10.925,210.754,229.004
-1.190,0.909,0.394,19.287,244.812,237.183
-0.950,0.926,0.285,24.170,262.817,248.596
-0.684,0.924,0.192,22.095,257.019,262.146
-0.442,0.905,0.142,14.771,227.966,273.132
-0.232,0.914,0.149,4.944,188.232,280.029
-0.027,0.953,0.181,-6.348,154.602,280.701
0.155,1.000,0.231,-15.930,136.414,274.841
0.321,1.036,0.277,-21.118,135.376,263.916
0.455,1.042,0.302,-22.217,147.339,251.648
0.649,1.007,0.297,-18.982,164.307,241.455
0.859,0.965,0.254,-13.306,174.744,230.774
1.066,0.912,0.249,-12.085,169.800,219.482
1.253,0.879,0.286,-14.771,151.550,210.266
1.433,0.856,0.354,-17.639,127.686,201.782
1.587,0.831,0.436,-20.203,105.591,192.139
1.733,0.841,0.495,-20.996,87.830,178.711
1.867,0.826,0.553,-21.240,73.120,159.119
1.935,0.798,0.627,-20.935,59.265,133.606
1.943,0.746,0.702,-17.395,43.823,100.830
1.947,0.784,0.702,-22.888,36.865,72.144
1.843,0.745,0.750,-18.494,51.758,55.115
1.855,0.740,0.783,-8.301,31.921,18.005
1.797,0.679,0.826,-1.709,12.268,-18.372
1.663,0.713,0.828,-1.831,6.897,-38.208
1.520,0.756,0.813,-1.221,5.066,-49.683
1.411,0.762,0.815,-2.930,-3.235,-62.683
1.328,0.738,0.818,-4.761,-7.385,-73.364
1.217,0.719,0.807,-2.747,-10.010,-82.336
1.075,0.740,0.792,2.014,-16.174,-91.980
0.971,0.718,0.771,6.836,-25.208,-104.431
0.875,0.654,0.743,12.756,-34.912,-122.559
0.763,0.672,0.707,15.015,-41.626,-128.723
0.677,0.645,0.695,12.695,-42.908,-126.648
0.594,0.614,0.696,12.268,-46.875,-131.409
0.525,0.574,0.690,14.099,-53.894,-139.160
0.476,0.550,0.676,16.663,-61.768,-144.531
0.432,0.593,0.660,17.334,-68.665,-147.400
0.394,0.577,0.659,12.329,-73.792,-149.353
0.311,0.544,0.700,4.333,-77.637,-150.452
0.257,0.548,0.720,2.625,-79.407,-148.254
0.246,0.534,0.729,3.174,-79.468,-146.484
0.232,0.531,0.737,1.648,-79.102,-144.897
0.207,0.517,0.743,0.366,-79.468,-144.226
0.167,0.493,0.758,-0.183,-81.177,-143.372
0.143,0.471,0.767,-0.549,-84.229,-140.930
0.148,0.458,0.769,-0.549,-88.074,-138.672
0.145,0.441,0.766,-1.221,-92.957,-138.184
0.089,0.469,0.760,-2.136,-97.900,-137.756
0.068,0.466,0.750,-5.005,-102.661,-140.076
0.039,0.461,0.748,-7.141,-104.553,-138.733
0.008,0.486,0.755,-7.629,-103.699,-136.047
-0.023,0.491,0.775,-9.460,-101.501,-135.559
-0.044,0.508,0.805,-9.155,-97.473,-131.287
-0.043,0.485,0.842,-9.277,-91.248,-127.197
-0.041,0.476,0.858,-6.592,-85.327,-121.582
-0.055,0.470,0.857,-2.197,-80.750,-118.896
-0.073,0.458,0.851,1.282,-78.674,-117.432
-0.105,0.451,0.834,4.089,-78.308,-114.746
-0.148,0.439,0.805,6.042,-78.674,-110.962
-0.171,0.431,0.781,6.653,-79.407,-105.469
-0.176,0.430,0.763,5.127,-80.750,-98.572
-0.169,0.417,0.751,1.648,-81.909,-92.590
-0.170,0.402,0.754,-1.892,-82.886,-88.440
-0.177,0.400,0.768,-5.554,-83.679,-85.938
-0.189,0.390,0.784,-9.277,-81.970,-84.778
-0.192,0.386,0.800,-12.939,-76.721,-83.984
-0.193,0.394,0.819,-15.564,-68.909,-84.229
-0.191,0.401,0.841,-16.968,-60.181,-85.022
-0.191,0.413,0.864,-16.785,-51.941,-85.510
-0.208,0.424,0.872,-14.587,-46.448,-86.487
-0.227,0.398,0.875,-11.475,-41.565,-85.571
-0.275,0.397,0.867,-7.812,-37.415,-81.360
-0.274,0.406,0.833,-3.479,-36.865,-84.229
-0.323,0.417,0.820,-1.892,-35.767,-65.918
-0.303,0.408,0.797,-1.587,-35.645,-54.443
-0.283,0.411,0.788,-4.822,-39.185,-48.584
-0.253,0.425,0.784,-7.935,-39.978,-41.138
-0.228,0.427,0.807,-13.611,-41.016,-38.818
-0.220,0.432,0.829,-18.799,-41.931,-40.161
-0.222,0.429,0.856,-21.973,-39.063,-42.725
-0.224,0.430,0.890,-24.597,-34.241,-44.189
-0.219,0.438,0.932,-25.452,-27.527,-44.922
-0.222,0.449,0.964,-23.743,-21.057,-43.701
-0.225,0.442,0.980,-19.470,-16.541,-42.297
-0.233,0.440,0.979,-13.733,-14.954,-39.307
-0.227,0.438,0.970,-7.446,-15.686,-34.973
-0.230,0.435,0.944,-1.221,-18.616,-30.090
-0.227,0.433,0.931,3.235,-22.400,-24.597
-0.212,0.433,0.908,2.502,-24.414,-19.348
-0.200,0.422,0.894,1.282,-24.475,-15.869
-0.193,0.411,0.889,-0.854,-22.461,-13.916
-0.196,0.405,0.884,-2.808,-19.958,-13.367
-0.202,0.393,0.890,-4.578,-16.479,-13.184
-0.189,0.388,0.897,-5.432,-13.000,-12.573
-0.174,0.394,0.901,-5.005,-10.254,-12.756
-0.170,0.390,0.907,-4.211,-8.545,-13.855
1.617,0.926,0.795,-55.847,117.065,166.748
1.684,0.867,0.876,-49.438,94.727,144.531
1.701,0.900,0.929,-42.175,79.468,121.399
1.705,0.903,0.967,-33.630,71.045,92.712
1.701,0.800,1.033,-24.780,61.768,56.519
1.655,0.916,0.974,-26.855,62.134,26.978
1.527,0.843,1.001,-11.414,99.243,16.174
1.460,0.875,1.014,2.991,78.064,-13.977
1.380,0.857,1.015,14.404,54.077,-48.035
1.270,0.799,0.998,20.569,50.842,-55.542
1.130,0.774,0.964,26.733,42.969,-52.490
1.053,0.729,0.908,31.250,21.790,-56.274
0.975,0.698,0.835,32.654,5.066,-56.152
0.878,0.656,0.778,30.762,-7.263,-56.152
0.782,0.623,0.739,29.419,-21.057,-59.998
0.721,0.602,0.712,28.870,-32.715,-65.491
0.619,0.545,0.697,27.893,-41.809,-79.529
0.522,0.528,0.693,22.705,-45.654,-84.534
0.426,0.493,0.690,16.357,-40.771,-78.613
0.364,0.453,0.688,11.047,-38.452,-82.886
0.320,0.435,0.689,9.521,-40.161,-88.928
0.277,0.425,0.694,8.850,-43.274,-91.125
0.237,0.414,0.701,7.507,-46.143,-91.736
0.201,0.412,0.705,5.676,-48.584,-92.590
0.172,0.411,0.708,3.357,-49.866,-94.055
0.150,0.422,0.715,0.977,-50.232,-95.520
0.128,0.438,0.730,-1.038,-49.377,-97.107
0.133,0.462,0.750,-2.441,-47.180,-98.633
0.143,0.480,0.776,-4.211,-44.495,-100.159
0.129,0.480,0.808,-5.310,-43.335,-102.783
0.099,0.461,0.838,-5.310,-43.152,-104.126
0.085,0.450,0.868,-3.784,-42.542,-102.234
0.108,0.448,0.885,-1.587,-43.152,-99.182
0.119,0.440,0.900,0.244,-46.387,-97.107
0.108,0.427,0.906,1.648,-52.429,-95.825
0.098,0.423,0.909,3.540,-59.570,-94.238
0.088,0.415,0.908,6.165,-66.040,-91.370
0.078,0.396,0.903,8.301,-70.313,-87.646
0.073,0.385,0.889,10.681,-72.876,-83.801
0.077,0.381,0.866,12.451,-73.853,-80.811
0.076,0.375,0.845,12.939,-73.730,-79.041
0.072,0.362,0.833,12.329,-72.510,-78.735
0.071,0.350,0.828,10.864,-70.007,-79.285
0.083,0.344,0.828,8.362,-66.650,-80.261
0.086,0.333,0.832,4.944,-63.660,-82.825
0.065,0.318,0.834,1.892,-61.951,-86.914
0.038,0.319,0.836,0.122,-61.584,-90.332
0.015,0.332,0.837,-0.610,-60.547,-92.041
-0.001,0.349,0.844,-0.671,-58.777,-91.919
-0.031,0.356,0.853,-0.366,-57.068,-89.966
-0.041,0.353,0.855,1.099,-55.847,-85.999
-0.044,0.347,0.845,2.319,-56.091,-81.482
-0.045,0.354,0.834,2.747,-57.800,-77.698
-0.046,0.360,0.826,2.441,-59.875,-75.989
-0.050,0.361,0.821,0.977,-61.340,-76.172
-0.061,0.365,0.821,-1.709,-61.401,-77.026
-0.078,0.369,0.832,-4.272,-58.960,-78.613
-0.085,0.373,0.843,-5.615,-53.955,-80.261
-0.075,0.380,0.842,-6.958,-46.936,-82.458
-0.073,0.381,0.840,-8.850,-39.856,-84.534
-0.087,0.391,0.845,-10.681,-35.767,-86.792
-0.127,0.395,0.858,-12.146,-34.424,-87.769
-0.159,0.396,0.869,-12.573,-35.156,-85.449
-0.171,0.400,0.878,-12.390,-37.354,-80.322
-0.165,0.407,0.877,-11.353,-39.734,-73.914
-0.154,0.416,0.869,-10.559,-42.542,-67.993
-0.142,0.424,0.874,-11.169,-45.410,-64.148
-0.132,0.427,0.880,-13.245,-46.631,-62.195
-0.116,0.426,0.891,-15.076,-44.739,-61.279
-0.108,0.427,0.898,-16.418,-40.588,-62.256
-0.110,0.423,0.902,-17.517,-34.851,-64.880
-0.120,0.422,0.897,-17.456,-28.015,-67.505
-0.154,0.408,0.898,-15.808,-21.729,-71.106
-0.109,0.441,0.878,-12.695,-17.822,-75.012
-0.190,0.442,0.892,-9.460,-13.855,-59.692
-0.176,0.429,0.895,-7.629,-12.878,-58.716
-0.191,0.451,0.885,-4.639,-17.700,-56.580
-0.170,0.456,0.880,-2.441,-20.691,-52.063
-0.157,0.455,0.879,-1.770,-22.827,-47.913
-0.157,0.454,0.876,-2.197,-24.719,-43.884
-0.156,0.452,0.880,-2.991,-26.001,-40.405
-0.150,0.447,0.884,-4.089,-25.757,-37.598
-0.136,0.441,0.888,-5.676,-24.353,-35.156
-0.122,0.435,0.898,-6.592,-22.034,-34.119
-0.121,0.430,0.907,-7.080,-20.508,-34.302
-0.123,0.427,0.911,-7.019,-19.531,-35.217
-0.123,0.420,0.910,-6.653,-17.212,-35.645
-0.125,0.413,0.905,-6.165,-15.137,-35.583
-0.131,0.409,0.901,-5.676,-13.916,-35.278
-0.134,0.406,0.896,-5.371,-13.550,-33.752
-0.139,0.400,0.892,-5.615,-13.916,-31.616
-0.141,0.402,0.890,-6.042,-15.625,-29.114
-0.130,0.413,0.889,-6.287,-15.869,-26.123
-0.120,0.417,0.893,-7.385,-15.808,-23.437
-0.122,0.418,0.901,-8.301,-16.418,-21.790
-0.128,0.416,0.912,-8.484,-17.395,-20.447
-0.122,0.411,0.919,-7.874,-16.663,-18.494
-0.112,0.412,0.918,-6.714,-15.381,-17.212
-0.105,0.414,0.915,-5.371,-13.672,-17.029
-0.103,0.417,0.918,-4.028,-11.902,-17.273
-1.765,1.036,0.707,17.151,52.612,120.667
-1.973,1.086,0.581,17.456,82.825,151.489
-2.125,1.158,0.448,17.029,113.831,188.049
-2.175,1.182,0.331,12.268,133.789,225.769
-2.112,1.143,0.166,9.583,140.198,263.611
-1.962,1.132,0.003,3.784,133.850,300.598
-1.749,1.080,-0.087,-9.827,119.812,327.026
-1.571,1.032,-0.081,-26.184,108.948,338.074
-1.417,0.994,-0.015,-38.513,116.455,338.745
-1.136,1.001,-0.002,-42.236,146.912,336.182
-0.773,1.011,-0.014,-40.283,189.026,328.735
-0.396,1.055,0.031,-38.879,228.516,317.444
0.009,1.093,0.114,-38.391,253.906,308.289
0.499,1.111,0.183,-35.767,261.658,304.138
0.946,1.115,0.252,-34.546,244.934,300.964
1.294,1.091,0.346,-34.607,203.491,296.936
1.523,1.056,0.438,-34.790,151.123,291.687
1.725,1.016,0.494,-34.729,108.337,282.410
1.940,0.965,0.577,-33.875,79.590,266.235
2.110,0.944,0.727,-33.142,66.345,240.906
2.188,0.937,0.890,-31.494,66.772,203.125
2.201,0.950,1.008,-26.367,75.073,158.203
2.170,0.960,1.061,-16.663,83.801,114.624
2.095,0.978,1.061,-5.249,87.219,74.707
1.993,0.919,1.061,4.822,84.167,39.368
1.910,0.959,0.981,5.798,83.313,16.052
1.719,0.908,0.948,16.052,92.712,8.301
1.609,0.851,0.933,17.517,55.908,-9.827
1.469,0.811,0.887,23.132,18.494,-27.710
1.303,0.830,0.838,24.170,-2.014,-38.452
1.165,0.797,0.814,23.132,-13.672,-47.119
1.018,0.783,0.790,23.010,-25.879,-54.382
0.910,0.779,0.765,23.071,-33.142,-62.134
0.791,0.761,0.756,22.644,-32.288,-69.946
0.694,0.744,0.757,22.217,-29.602,-78.064
0.610,0.728,0.750,22.217,-27.832,-86.609
0.550,0.696,0.757,22.400,-27.893,-94.543
0.495,0.682,0.744,20.142,-35.828,-111.877
0.426,0.682,0.746,17.090,-33.081,-111.389
0.392,0.646,0.759,12.634,-29.907,-113.525
0.354,0.616,0.764,10.925,-33.203,-121.521
0.323,0.595,0.773,10.132,-40.100,-129.578
0.293,0.568,0.786,8.789,-46.143,-134.338
0.274,0.526,0.808,6.042,-48.889,-134.094
0.278,0.497,0.817,3.784,-49.927,-131.042
0.273,0.467,0.814,2.625,-52.002,-128.723
0.267,0.456,0.805,1.587,-56.213,-128.662
0.269,0.450,0.793,0.000,-61.646,-129.333
0.265,0.439,0.793,-2.136,-67.627,-130.615
0.259,0.443,0.796,-3.784,-72.632,-132.812
0.231,0.439,0.796,-5.249,-76.233,-135.559
0.201,0.434,0.800,-6.287,-77.454,-137.573
0.175,0.430,0.798,-6.226,-75.684,-138.184
0.155,0.432,0.802,-5.493,-71.350,-137.695
0.141,0.405,0.816,-5.432,-65.186,-135.742
0.126,0.387,0.836,-5.432,-59.082,-132.935
0.103,0.378,0.850,-4.211,-54.565,-130.554
0.103,0.373,0.849,-2.136,-53.162,-127.991
0.099,0.362,0.828,-0.244,-56.519,-125.122
0.077,0.351,0.806,0.183,-65.552,-122.803
0.074,0.355,0.797,0.366,-78.125,-119.019
0.054,0.357,0.787,-0.061,-90.942,-114.624
0.026,0.349,0.776,-0.671,-102.173,-111.877
-0.000,0.333,0.763,-2.014,-110.596,-109.924
-0.056,0.309,0.766,-3.967,-114.624,-107.727
-0.094,0.317,0.766,-3.967,-112.061,-103.333
-0.124,0.328,0.776,-5.371,-104.431,-100.647
-0.145,0.352,0.778,-6.409,-92.529,-97.839
-0.160,0.377,0.781,-6.897,-79.590,-96.497
-0.189,0.392,0.778,-6.653,-68.909,-96.069
-0.225,0.412,0.767,-5.798,-62.378,-94.788
-0.254,0.431,0.757,-4.700,-60.242,-91.919
-0.268,0.443,0.755,-4.089,-60.913,-87.280
-0.273,0.453,0.749,-4.333,-62.073,-82.336
-0.277,0.461,0.751,-5.493,-62.378,-78.430
-0.272,0.468,0.766,-8.179,-60.547,-75.256
-0.275,0.469,0.785,-11.169,-55.420,-72.815
-0.284,0.461,0.816,-14.587,-48.706,-72.205
-0.202,0.467,0.823,-14.282,-40.649,-81.055
-0.269,0.496,0.855,-14.404,-35.522,-64.636
-0.253,0.471,0.879,-15.808,-30.212,-64.087
-0.273,0.502,0.884,-14.832,-29.175,-66.345
-0.288,0.514,0.894,-13.000,-27.771,-60.303
-0.303,0.518,0.903,-11.414,-27.527,-54.565
-0.307,0.521,0.891,-7.690,-28.625,-49.805
-0.314,0.518,0.878,-3.906,-31.982,-44.189
-0.302,0.505,0.867,-1.709,-34.729,-36.865
-0.286,0.499,0.865,-1.282,-35.278,-30.518
-0.282,0.491,0.878,-2.380,-33.508,-26.184
-0.281,0.479,0.900,-4.578,-30.334,-22.583
-0.252,0.472,0.919,-5.798,-25.635,-20.386
-0.225,0.464,0.937,-5.493,-20.935,-19.897
-0.207,0.451,0.951,-4.089,-18.066,-20.325
-0.186,0.444,0.955,-1.099,-16.785,-20.813
-0.178,0.428,0.954,2.319,-15.869,-21.240
-0.165,0.407,0.949,5.859,-15.198,-21.362
-0.159,0.395,0.944,9.949,-14.038,-21.484
-0.166,0.378,0.930,11.719,-12.451,-21.851
-0.169,0.364,0.908,13.733,-11.658,-21.545
-0.173,0.359,0.885,14.587,-12.024,-20.569
-1.590,1.026,0.756,20.813,50.659,130.615
-1.728,1.086,0.689,21.973,66.040,146.790
-1.818,1.053,0.630,18.921,78.918,164.246
-1.886,1.034,0.540,16.357,87.524,187.866
-1.868,1.024,0.424,13.733,88.989,213.806
-1.810,0.982,0.358,7.812,84.106,242.004
-1.746,0.917,0.322,2.686,78.308,271.362
-1.623,0.906,0.280,3.479,79.102,300.415
-1.360,0.869,0.225,5.798,95.886,320.801
-1.104,0.875,0.151,5.615,124.573,330.078
-0.836,0.873,0.088,2.014,157.349,330.811
-0.521,0.870,0.077,-4.456,190.125,324.036
-0.247,0.911,0.080,-9.827,218.994,316.711
0.009,0.947,0.113,-13.916,235.962,306.519
0.278,1.021,0.149,-15.869,241.089,301.758
0.549,1.068,0.200,-20.142,235.352,298.218
0.801,1.075,0.271,-26.001,216.248,293.518
0.997,1.104,0.340,-27.527,190.491,291.016
1.229,1.130,0.415,-28.320,165.466,286.743
1.504,1.109,0.515,-29.480,143.066,276.733
1.755,1.106,0.607,-27.466,125.610,260.315
1.939,1.097,0.703,-24.048,112.976,234.558
2.049,1.092,0.828,-22.583,101.685,199.219
2.128,1.049,0.928,-17.334,91.919,161.499
2.168,1.053,0.973,-9.277,82.458,126.343
2.131,0.956,1.011,0.305,65.247,87.341
2.136,1.004,0.964,3.235,56.030,57.678
2.029,0.944,0.984,15.137,64.270,39.673
1.954,0.862,0.998,22.339,31.616,4.883
1.829,0.835,0.972,29.480,7.141,-23.621
1.692,0.775,0.948,27.710,-1.160,-42.908
1.555,0.736,0.919,28.320,-6.165,-52.612
1.414,0.720,0.890,31.006,-16.785,-60.974
1.290,0.676,0.845,32.471,-22.034,-71.289
1.157,0.636,0.785,33.752,-20.325,-81.848
1.019,0.600,0.726,35.828,-21.423,-94.238
0.884,0.559,0.673,38.208,-25.269,-108.459
0.777,0.526,0.636,39.307,-31.189,-121.399
0.657,0.482,0.589,39.185,-41.443,-140.137
0.575,0.476,0.559,32.715,-50.903,-148.437
0.472,0.445,0.567,22.949,-53.894,-143.738
0.412,0.443,0.572,15.320,-59.570,-147.156
0.384,0.442,0.574,7.874,-69.641,-154.846
0.329,0.448,0.612,-0.671,-78.186,-162.048
0.281,0.443,0.635,-9.033,-83.191,-169.495
0.215,0.448,0.676,-16.235,-84.167,-171.021
0.166,0.456,0.719,-21.912,-81.909,-169.006
0.116,0.452,0.776,-25.452,-78.125,-165.100
0.116,0.450,0.818,-24.170,-71.716,-160.461
0.121,0.468,0.845,-19.958,-65.125,-155.396
0.137,0.457,0.849,-16.357,-59.814,-153.198
0.109,0.453,0.844,-13.245,-57.861,-151.123
0.076,0.447,0.830,-10.681,-59.387,-149.292
0.055,0.447,0.810,-9.094,-63.782,-145.874
0.034,0.437,0.795,-9.155,-68.909,-140.625
0.012,0.416,0.787,-10.010,-73.914,-134.460
0.009,0.402,0.786,-11.292,-79.163,-127.380
0.033,0.400,0.791,-12.512,-84.167,-120.605
0.041,0.386,0.796,-13.550,-88.501,-117.004
0.009,0.370,0.812,-14.282,-92.468,-116.028
-0.044,0.357,0.848,-13.611,-94.727,-114.014
-0.078,0.355,0.865,-10.559,-93.079,-110.229
-0.083,0.370,0.860,-6.409,-87.585,-105.652
-0.085,0.376,0.845,-3.296,-82.397,-102.417
-0.106,0.364,0.827,-0.854,-80.078,-99.915
-0.131,0.364,0.807,0.122,-80.566,-96.863
-0.152,0.363,0.793,-0.122,-80.750,-92.590
-0.164,0.358,0.778,-1.343,-79.590,-88.013
-0.166,0.356,0.770,-3.540,-77.271,-84.167
-0.164,0.356,0.770,-6.531,-74.585,-81.970
-0.170,0.357,0.778,-9.583,-71.472,-81.604
-0.189,0.351,0.789,-12.146,-67.444,-83.679
-0.216,0.345,0.802,-13.550,-61.646,-85.815
-0.234,0.360,0.804,-13.794,-54.626,-86.792
-0.265,0.386,0.810,-14.404,-48.401,-87.097
-0.305,0.393,0.819,-14.832,-43.823,-85.205
-0.320,0.405,0.817,-14.160,-42.114,-80.505
-0.353,0.409,0.818,-13.916,-44.067,-76.233
-0.310,0.422,0.811,-12.146,-46.326,-73.486
-0.382,0.424,0.837,-13.550,-51.758,-52.368
-0.352,0.402,0.844,-15.747,-53.589,-49.561
-0.359,0.422,0.849,-17.273,-53.955,-45.593
-0.345,0.416,0.875,-19.714,-51.575,-39.429
-0.346,0.411,0.888,-20.569,-48.584,-38.452
-0.355,0.415,0.892,-18.555,-44.617,-40.039
-0.372,0.414,0.901,-16.663,-40.405,-41.260
-0.370,0.419,0.914,-14.404,-35.034,-41.443
-0.364,0.421,0.928,-11.475,-28.748,-40.039
-0.358,0.439,0.940,-8.606,-23.193,-38.147
-0.356,0.452,0.950,-5.798,-18.494,-36.011
-0.355,0.449,0.954,-3.174,-15.198,-33.325
-0.353,0.436,0.951,-1.038,-13.550,-30.945
-0.348,0.420,0.943,0.610,-12.451,-27.771
-0.317,0.412,0.934,1.648,-12.085,-24.109
-0.290,0.404,0.933,2.014,-12.085,-21.118
-0.278,0.388,0.936,2.686,-12.329,-20.630
-0.261,0.376,0.938,3.723,-12.146,-21.179
-0.244,0.367,0.939,5.249,-10.376,-22.217
-0.222,0.365,0.935,6.897,-6.775,-24.048
-0.206,0.351,0.931,7.629,-2.991,-26.428
-1.653,0.957,0.655,-0.854,71.228,145.935
-1.844,0.981,0.529,-4.028,71.777,168.457
-1.950,0.963,0.440,-10.620,74.402,190.063
-2.004,0.962,0.427,-16.235,82.458,213.684
-1.940,1.001,0.414,-18.738,97.168,241.455
-1.805,1.047,0.392,-19.958,109.924,264.526
-1.641,1.047,0.371,-21.240,118.774,278.625
-1.480,1.069,0.359,-21.423,133.789,286.499
-1.329,1.094,0.374,-20.020,157.837,290.283
-1.079,1.102,0.346,-14.343,192.505,290.649
-0.782,1.119,0.288,-6.470,228.333,290.283
-0.491,1.157,0.217,0.854,248.840,291.931
-0.202,1.183,0.184,4.028,249.878,292.969
0.125,1.193,0.162,4.456,236.206,298.828
0.483,1.178,0.152,2.686,213.013,305.786
0.784,1.176,0.164,-0.793,187.439,307.739
1.105,1.156,0.222,-4.517,166.016,303.772
1.410,1.136,0.286,-5.737,153.442,291.321
1.646,1.131,0.345,-5.554,148.804,268.250
1.791,1.121,0.433,-5.859,151.733,235.413
1.895,1.124,0.505,-4.272,158.752,198.792
1.971,1.108,0.585,-1.587,161.682,164.734
2.021,1.109,0.657,1.770,154.236,138.000
2.052,1.105,0.718,5.920,137.024,116.943
2.043,1.101,0.774,9.766,112.793,98.022
2.006,1.050,0.819,13.000,105.225,88.318
2.011,1.025,0.867,21.851,84.106,70.068
2.007,0.961,0.910,31.311,60.242,49.316
1.948,0.929,0.924,36.926,42.297,28.992
1.886,0.836,0.931,40.894,26.978,5.249
1.757,0.792,0.895,46.143,16.235,-13.489
1.626,0.731,0.849,48.767,6.897,-29.846
1.478,0.677,0.799,45.837,-3.235,-42.358
1.339,0.621,0.757,41.870,-14.221,-51.880
1.196,0.580,0.719,39.612,-29.114,-62.805
1.044,0.538,0.671,39.246,-44.495,-74.463
0.939,0.496,0.638,39.551,-58.105,-84.473
0.862,0.454,0.604,38.757,-70.862,-102.783
0.735,0.431,0.588,36.194,-79.895,-110.046
0.641,0.411,0.576,30.151,-80.505,-117.798
0.572,0.390,0.568,26.123,-78.247,-130.554
0.531,0.392,0.566,22.034,-77.393,-145.325
0.500,0.430,0.574,17.944,-74.402,-156.433
0.479,0.432,0.596,10.376,-70.740,-168.152
0.418,0.446,0.612,2.014,-66.772,-177.002
0.373,0.450,0.636,-7.507,-65.735,-185.181
0.325,0.427,0.664,-15.930,-65.735,-188.232
0.268,0.428,0.681,-22.583,-66.406,-186.279
0.247,0.396,0.708,-27.893,-69.153,-182.800
0.217,0.391,0.712,-30.334,-72.205,-175.598
0.214,0.374,0.715,-30.640,-74.646,-167.786
0.208,0.376,0.719,-29.785,-76.416,-160.339
0.195,0.389,0.734,-28.503,-77.393,-154.175
0.182,0.367,0.732,-27.222,-79.102,-150.696
0.165,0.335,0.745,-26.550,-82.275,-148.865
0.127,0.361,0.740,-22.339,-84.290,-144.714
0.121,0.398,0.723,-20.203,-86.609,-143.860
0.082,0.422,0.729,-22.583,-88.989,-145.020
0.055,0.413,0.756,-26.428,-88.867,-145.935
0.031,0.408,0.777,-28.442,-85.815,-143.616
0.011,0.406,0.796,-28.198,-81.055,-138.428
-0.010,0.392,0.808,-26.672,-76.477,-134.033
-0.040,0.390,0.810,-24.719,-73.120,-129.333
-0.079,0.402,0.806,-23.437,-71.777,-122.681
-0.110,0.407,0.803,-23.315,-73.181,-114.746
-0.123,0.414,0.797,-23.254,-76.782,-106.079
-0.142,0.422,0.790,-23.743,-81.421,-98.694
-0.165,0.434,0.782,-24.109,-85.876,-93.201
-0.201,0.444,0.781,-24.475,-89.172,-89.355
-0.216,0.449,0.783,-24.963,-89.844,-86.548
-0.240,0.447,0.789,-25.269,-86.365,-84.595
-0.272,0.454,0.796,-25.330,-79.956,-83.313
-0.303,0.458,0.796,-24.902,-71.777,-81.909
-0.325,0.461,0.799,-24.353,-63.354,-79.651
-0.341,0.463,0.803,-24.048,-55.786,-76.477
-0.333,0.474,0.812,-24.963,-49.072,-72.327
-0.339,0.457,0.841,-26.001,-44.067,-70.496
-0.278,0.484,0.842,-24.292,-44.006,-71.533
-0.309,0.494,0.875,-22.156,-40.833,-53.711
-0.282,0.497,0.889,-21.301,-41.626,-54.138
-0.288,0.518,0.893,-19.104,-41.748,-53.467
-0.298,0.513,0.905,-16.785,-38.452,-48.523
-0.299,0.500,0.909,-15.015,-37.231,-48.279
-0.297,0.496,0.901,-12.695,-36.133,-47.302
-0.276,0.489,0.890,-10.376,-33.630,-45.532
-0.275,0.483,0.887,-9.460,-31.738,-43.457
-0.270,0.473,0.881,-9.155,-28.320,-42.358
-0.271,0.464,0.879,-9.094,-25.146,-41.077
-0.264,0.454,0.885,-9.583,-22.278,-39.185
-0.256,0.451,0.897,-10.071,-19.165,-36.865
-0.245,0.445,0.914,-9.766,-16.357,-33.936
-0.227,0.441,0.925,-8.911,-14.221,-29.907
-0.202,0.438,0.925,-7.812,-13.916,-25.757
-0.190,0.442,0.928,-6.836,-15.320,-22.766
-0.184,0.437,0.927,-4.883,-16.418,-20.691
-0.188,0.428,0.921,-2.930,-17.334,-18.433
-0.191,0.422,0.916,-0.427,-17.883,-15.869
-0.180,0.419,0.910,1.892,-16.479,-13.550
-0.163,0.418,0.892,3.784,-14.465,-12.329
-0.154,0.408,0.882,4.150,-13.062,-12.451
1.567,1.409,0.525,-8.484,194.031,248.718
1.782,1.366,0.606,-0.610,180.176,218.445
1.949,1.316,0.668,7.690,171.692,192.505
2.075,1.231,0.729,15.198,154.419,165.222
2.170,1.151,0.782,25.085,130.249,142.090
2.207,1.119,0.785,32.349,101.135,121.643
2.194,1.029,0.820,40.894,89.478,107.788
2.185,0.997,0.832,54.810,56.641,82.275
2.134,0.922,0.844,64.819,27.771,53.162
2.030,0.842,0.829,69.702,9.033,26.245
1.922,0.757,0.787,71.472,1.465,3.845
1.763,0.704,0.715,71.411,0.732,-13.672
1.594,0.642,0.686,67.810,0.122,-34.912
1.396,0.601,0.650,65.308,5.127,-52.612
1.217,0.596,0.600,65.979,7.263,-68.970
1.054,0.570,0.579,66.284,4.761,-86.182
0.923,0.530,0.576,65.735,-0.793,-100.891
0.735,0.514,0.548,65.735,-8.545,-115.845
0.608,0.478,0.544,61.096,-19.592,-126.953
0.483,0.477,0.562,53.406,-23.132,-121.094
0.423,0.453,0.592,46.570,-27.100,-121.643
0.350,0.472,0.609,41.931,-35.217,-126.587
0.292,0.460,0.640,36.560,-44.250,-131.897
0.230,0.465,0.657,31.860,-49.316,-131.714
0.186,0.463,0.671,28.015,-51.331,-128.235
0.173,0.438,0.679,24.475,-53.345,-124.084
0.180,0.418,0.690,19.592,-56.274,-120.789
0.181,0.406,0.701,13.184,-60.547,-120.361
0.187,0.383,0.714,6.714,-64.636,-122.131
0.186,0.406,0.743,1.526,-68.054,-125.427
0.221,0.395,0.778,-2.319,-68.970,-130.554
0.201,0.413,0.796,-4.883,-68.726,-138.306
0.166,0.410,0.817,-6.348,-68.481,-147.278
0.153,0.423,0.811,-8.606,-67.627,-153.259
0.129,0.415,0.818,-12.207,-65.063,-156.494
0.113,0.430,0.823,-13.611,-60.608,-155.884
0.107,0.422,0.844,-14.954,-57.190,-153.931
0.118,0.417,0.864,-15.259,-55.603,-150.024
0.115,0.391,0.882,-14.832,-57.495,-145.081
0.104,0.366,0.886,-13.855,-62.500,-140.259
0.088,0.361,0.879,-12.024,-69.580,-133.118
0.086,0.341,0.872,-11.292,-76.294,-125.549
0.068,0.335,0.869,-10.986,-82.092,-117.859
0.055,0.334,0.865,-11.536,-86.670,-110.779
0.050,0.345,0.851,-12.146,-89.111,-104.858
0.055,0.354,0.839,-13.489,-89.294,-99.243
0.052,0.350,0.828,-16.235,-88.623,-96.252
0.060,0.347,0.829,-19.226,-87.585,-95.825
0.044,0.349,0.826,-21.729,-85.632,-96.985
-0.021,0.350,0.844,-24.719,-83.313,-99.304
-0.085,0.330,0.871,-26.978,-79.590,-99.609
-0.127,0.332,0.880,-25.574,-75.317,-95.764
-0.154,0.332,0.886,-23.010,-71.350,-90.698
-0.187,0.336,0.890,-19.775,-69.214,-84.595
-0.199,0.340,0.884,-15.442,-68.054,-77.698
-0.184,0.360,0.868,-10.986,-67.810,-71.960
-0.150,0.375,0.849,-8.789,-68.909,-68.848
-0.144,0.375,0.841,-9.094,-69.946,-69.458
-0.168,0.364,0.843,-9.827,-68.970,-72.266
-0.193,0.352,0.844,-11.475,-66.650,-75.256
-0.186,0.356,0.841,-13.916,-61.646,-76.843
-0.189,0.347,0.846,-16.724,-54.932,-77.759
-0.211,0.340,0.853,-18.738,-48.279,-78.735
-0.239,0.343,0.858,-19.836,-42.969,-78.857
-0.259,0.347,0.863,-20.569,-38.269,-76.965
-0.282,0.352,0.878,-20.874,-33.813,-72.937
-0.294,0.354,0.890,-19.775,-30.396,-67.139
-0.291,0.363,0.890,-16.846,-28.870,-60.303
-0.269,0.379,0.887,-14.465,-28.809,-53.650
-0.251,0.384,0.887,-13.062,-29.053,-48.706
-0.188,0.407,0.878,-11.475,-29.480,-49.683
-0.233,0.412,0.906,-12.634,-31.799,-34.790
-0.176,0.395,0.929,-13.672,-30.518,-34.729
-0.169,0.405,0.929,-13.123,-30.151,-38.452
-0.167,0.391,0.929,-12.634,-30.029,-41.626
-0.175,0.384,0.920,-11.475,-30.396,-43.213
-0.190,0.384,0.900,-9.888,-29.785,-43.518
-0.212,0.386,0.880,-8.850,-28.809,-44.128
-0.238,0.382,0.872,-8.667,-28.259,-43.030
-0.249,0.379,0.873,-8.728,-28.442,-40.100
-0.255,0.387,0.877,-8.850,-28.809,-35.645
-0.241,0.405,0.880,-8.667,-27.954,-31.189
-0.213,0.413,0.889,-9.094,-26.245,-27.588
-0.200,0.415,0.901,-9.399,-24.597,-25.635
-0.185,0.422,0.911,-8.850,-22.949,-24.719
-0.172,0.422,0.919,-7.751,-22.034,-24.780
-0.164,0.421,0.921,-6.226,-20.996,-25.635
-0.156,0.415,0.920,-4.333,-19.226,-26.001
-0.145,0.410,0.916,-2.197,-17.273,-26.123
-0.139,0.405,0.905,-0.244,-15.198,-26.917
-0.135,0.392,0.889,0.427,-12.939,-28.015
-0.144,0.376,0.881,0.793,-12.268,-29.541
-0.149,0.359,0.869,0.977,-11.963,-30.029
-0.159,0.346,0.854,0.244,-11.719,-29.846
-0.167,0.336,0.849,-0.732,-12.085,-29.419
-0.174,0.332,0.845,-2.563,-11.902,-28.931
-0.166,0.337,0.845,-5.066,-11.658,-27.222
-0.151,0.347,0.852,-7.690,-11.230,-25.269
-0.147,0.357,0.868,-9.521,-10.620,-23.987
-0.140,0.355,0.889,-9.827,-9.949,-23.560
1.591,1.214,0.481,-31.006,125.305,220.825
1.710,1.213,0.542,-26.794,107.239,192.932
1.828,1.230,0.581,-22.888,85.693,163.086
1.955,1.225,0.619,-24.780,67.871,133.301
1.906,1.178,0.702,-25.818,46.692,95.581
2.074,1.187,0.750,-37.598,51.819,72.205
2.029,1.086,0.830,-27.405,61.096,52.490
2.071,1.003,0.877,-18.127,29.297,2.747
1.953,0.991,0.891,-8.972,12.512,-33.020
1.823,0.960,0.943,-10.193,10.315,-50.049
1.651,0.938,0.965,-8.972,6.165,-59.875
1.533,0.872,0.972,-4.517,-2.441,-71.533
1.380,0.843,0.945,3.845,-8.667,-81.116
1.237,0.770,0.916,12.451,-17.273,-92.712
1.103,0.721,0.864,21.973,-29.968,-105.042
0.914,0.640,0.824,28.809,-43.457,-118.042
0.810,0.612,0.738,35.217,-54.565,-142.029
0.637,0.534,0.702,30.029,-64.880,-138.428
0.522,0.503,0.668,23.132,-65.918,-135.559
0.441,0.469,0.651,17.273,-67.383,-144.470
0.349,0.441,0.656,13.550,-68.848,-151.306
0.251,0.432,0.666,12.085,-70.068,-156.067
0.175,0.430,0.668,11.414,-68.542,-158.569
0.117,0.434,0.665,9.766,-64.270,-158.875
0.074,0.427,0.671,7.629,-60.059,-158.142
0.039,0.442,0.680,4.883,-57.678,-156.128
0.014,0.432,0.713,0.488,-57.617,-153.931
0.015,0.410,0.734,-1.953,-57.190,-149.414
0.004,0.428,0.747,-3.174,-59.082,-142.090
0.005,0.382,0.756,-6.287,-64.148,-138.000
0.002,0.370,0.763,-8.545,-72.266,-132.812
-0.032,0.386,0.772,-9.583,-82.031,-128.174
-0.045,0.374,0.767,-9.644,-90.515,-123.230
-0.068,0.389,0.755,-8.972,-97.168,-118.225
-0.071,0.384,0.747,-9.338,-101.013,-116.333
-0.080,0.393,0.756,-10.376,-101.074,-114.868
-0.088,0.385,0.776,-12.146,-96.252,-114.136
-0.069,0.374,0.792,-14.221,-88.623,-113.708
-0.032,0.368,0.818,-16.479,-79.773,-114.807
-0.001,0.377,0.834,-17.700,-72.388,-117.371
0.015,0.386,0.847,-18.311,-66.711,-121.765
0.000,0.396,0.870,-19.165,-63.171,-126.465
-0.033,0.404,0.896,-18.188,-60.730,-128.296
-0.041,0.408,0.913,-15.259,-59.204,-125.854
-0.056,0.406,0.909,-11.780,-60.242,-122.559
-0.062,0.407,0.902,-8.179,-65.002,-119.263
-0.077,0.404,0.886,-5.188,-72.021,-115.479
-0.088,0.395,0.870,-3.296,-79.834,-111.755
-0.085,0.399,0.857,-3.052,-87.341,-108.459
-0.080,0.399,0.849,-4.944,-92.346,-106.384
-0.091,0.389,0.850,-8.789,-94.055,-106.750
-0.101,0.380,0.858,-12.512,-91.431,-107.971
-0.114,0.370,0.880,-15.625,-84.778,-108.765
-0.132,0.366,0.905,-16.968,-76.782,-109.985
-0.151,0.369,0.924,-15.442,-67.688,-110.901
-0.175,0.379,0.935,-12.085,-59.143,-110.107
-0.205,0.386,0.933,-7.507,-53.833,-107.788
-0.239,0.396,0.914,-3.174,-51.941,-104.797
-0.244,0.361,0.893,-0.244,-52.673,-100.708
-0.256,0.377,0.874,3.052,-55.420,-93.018
-0.229,0.378,0.856,2.991,-58.350,-86.609
-0.196,0.361,0.828,2.075,-62.561,-89.294
-0.199,0.377,0.847,-2.136,-64.453,-82.642
-0.210,0.362,0.876,-5.859,-60.791,-73.914
-0.165,0.391,0.882,-8.972,-58.289,-75.378
-0.161,0.381,0.897,-11.841,-51.941,-75.806
-0.182,0.379,0.916,-13.977,-47.058,-78.125
-0.209,0.382,0.922,-14.160,-44.067,-80.750
-0.246,0.371,0.928,-12.512,-40.405,-80.811
-0.276,0.379,0.928,-9.033,-37.598,-76.233
-0.281,0.393,0.913,-4.333,-36.560,-69.641
-0.271,0.413,0.892,-0.427,-38.696,-61.401
-0.275,0.415,0.871,2.014,-41.504,-53.833
-0.280,0.423,0.861,3.174,-42.419,-49.194
-0.279,0.414,0.867,2.930,-41.260,-44.861
-0.269,0.406,0.880,1.160,-38.147,-41.748
-0.247,0.406,0.889,0.671,-32.227,-40.283
-0.241,0.403,0.889,0.061,-25.879,-39.917
-0.228,0.388,0.889,-0.244,-21.790,-39.673
-0.211,0.389,0.880,0.427,-19.897,-39.490
-0.203,0.388,0.866,1.465,-19.226,-39.917
-0.203,0.381,0.863,0.977,-18.433,-40.283
-0.215,0.370,0.862,-0.122,-17.944,-40.588
-0.230,0.371,0.872,-1.465,-16.174,-40.466
-0.243,0.379,0.884,-3.357,-13.672,-38.818
-0.245,0.391,0.896,-5.066,-11.719,-35.706
-0.249,0.391,0.913,-6.104,-11.902,-31.738
-0.246,0.390,0.931,-5.005,-14.343,-26.917
-0.236,0.387,0.937,-2.014,-17.761,-21.851
-0.224,0.380,0.935,0.977,-20.996,-17.212
-0.203,0.369,0.930,3.967,-22.766,-13.916
-0.185,0.356,0.917,6.714,-22.949,-12.817
-0.178,0.333,0.906,8.362,-21.545,-13.611
-0.179,0.313,0.895,9.644,-18.250,-15.076
-0.185,0.294,0.879,10.132,-14.343,-17.212
-0.197,0.283,0.860,9.399,-11.169,-18.982
-0.207,0.284,0.845,7.690,-8.850,-19.653
-0.218,0.286,0.837,5.127,-6.348,-19.836
-0.229,0.289,0.840,1.221,-4.272,-18.738
-0.239,0.292,0.844,-2.747,-3.052,-17.273
-1.633,0.901,0.580,21.545,82.031,188.354
-1.742,0.954,0.480,18.372,74.890,222.900
-1.847,0.958,0.373,11.841,66.162,256.226
-1.913,0.955,0.269,1.770,66.345,289.246
-1.899,0.961,0.193,-8.484,80.994,317.993
-1.818,0.952,0.173,-15.442,109.131,335.449
-1.640,0.892,0.124,-14.343,147.278,347.534
-1.454,0.907,0.077,-8.057,187.866,361.694
-1.298,0.924,0.057,0.244,217.834,376.160
-1.104,1.015,0.024,8.606,236.145,391.907
-0.810,1.076,-0.020,13.977,247.803,409.424
-0.473,1.121,-0.036,14.771,245.911,425.171
-0.089,1.150,-0.046,12.817,230.408,435.364
0.364,1.195,-0.034,6.714,209.534,436.646
0.819,1.235,0.018,-8.728,184.082,424.744
1.155,1.256,0.119,-27.771,154.968,396.240
1.417,1.268,0.258,-45.410,130.981,360.718
1.634,1.299,0.442,-58.167,118.652,329.224
1.800,1.357,0.648,-62.256,115.112,301.514
1.905,1.406,0.840,-58.838,112.793,273.987
1.985,1.439,0.982,-49.194,105.164,244.873
2.068,1.446,1.068,-35.583,92.468,213.745
2.114,1.433,1.097,-25.391,75.562,172.974
2.111,1.424,1.097,-18.982,66.223,131.165
1.947,1.326,1.077,-13.245,51.453,85.999
2.025,1.231,1.097,-24.170,68.665,60.669
1.888,1.131,1.083,-15.686,76.172,31.250
1.801,1.018,1.065,-7.507,45.654,-22.034
1.589,0.961,1.024,-6.409,27.954,-59.570
1.400,0.893,0.989,-12.573,22.583,-76.294
1.204,0.844,0.964,-10.742,7.141,-85.815
1.038,0.793,0.952,-5.676,-14.893,-102.173
0.850,0.769,0.928,-0.183,-24.597,-115.906
0.674,0.746,0.886,3.906,-27.466,-126.892
0.539,0.677,0.854,6.348,-30.457,-134.827
0.445,0.647,0.813,8.728,-37.537,-154.358
0.328,0.629,0.805,5.920,-42.786,-149.597
0.247,0.619,0.796,1.038,-42.603,-143.677
0.211,0.588,0.786,-0.305,-47.668,-152.039
0.187,0.559,0.795,0.793,-53.040,-156.982
0.171,0.523,0.803,2.441,-54.382,-159.729
0.147,0.479,0.810,2.869,-52.673,-161.072
0.165,0.449,0.805,2.747,-51.392,-160.583
0.190,0.423,0.799,1.465,-52.734,-160.095
0.190,0.381,0.799,-1.038,-57.312,-162.842
0.195,0.354,0.801,-2.808,-62.500,-165.222
0.197,0.337,0.796,-4.517,-66.223,-164.185
0.222,0.329,0.792,-5.005,-67.078,-162.842
0.251,0.336,0.789,-6.042,-67.017,-161.560
0.252,0.366,0.787,-7.019,-67.444,-161.926
0.215,0.383,0.818,-8.118,-69.092,-164.917
0.182,0.394,0.854,-7.568,-69.946,-166.260
0.177,0.410,0.860,-4.089,-67.993,-164.307
0.197,0.378,0.851,-0.732,-66.223,-159.851
0.222,0.355,0.833,1.953,-67.261,-154.480
0.216,0.370,0.802,4.333,-73.181,-150.269
0.190,0.375,0.770,3.174,-83.252,-148.254
0.177,0.336,0.769,-2.441,-95.215,-148.010
0.150,0.309,0.776,-5.249,-104.004,-143.005
0.130,0.336,0.768,-4.639,-107.239,-135.559
0.116,0.333,0.778,-7.080,-106.628,-131.653
0.085,0.333,0.815,-10.315,-101.807,-129.761
0.055,0.356,0.855,-10.986,-91.797,-127.930
0.036,0.371,0.893,-8.606,-79.651,-126.465
0.029,0.391,0.910,-3.113,-68.848,-125.671
0.001,0.380,0.899,4.211,-60.974,-125.366
-0.019,0.379,0.867,11.108,-57.800,-122.864
-0.031,0.377,0.830,16.235,-58.411,-119.324
-0.029,0.380,0.793,18.250,-60.547,-114.502
-0.055,0.371,0.762,15.808,-65.491,-110.718
-0.089,0.332,0.746,10.376,-72.388,-108.948
-0.137,0.327,0.746,4.761,-77.209,-105.103
-0.155,0.303,0.745,-0.488,-78.308,-99.243
-0.148,0.320,0.737,-4.211,-76.294,-93.384
-0.156,0.311,0.754,-9.216,-74.463,-89.783
-0.175,0.339,0.781,-13.367,-72.021,-85.938
-0.187,0.349,0.808,-16.479,-68.787,-82.336
-0.198,0.351,0.838,-17.761,-65.186,-80.078
-0.223,0.355,0.859,-16.968,-62.378,-78.491
-0.234,0.366,0.864,-14.404,-58.105,-76.965
-0.250,0.386,0.862,-11.353,-54.504,-74.524
-0.268,0.392,0.852,-8.545,-52.307,-72.510
-0.278,0.386,0.846,-6.348,-51.147,-69.946
-0.296,0.376,0.837,-4.944,-50.598,-66.833
-0.312,0.369,0.831,-4.761,-49.500,-62.866
-0.268,0.369,0.814,-5.249,-48.279,-63.232
-0.303,0.355,0.826,-7.690,-45.227,-51.392
-0.292,0.340,0.841,-10.437,-42.236,-50.537
-0.299,0.333,0.859,-12.085,-39.673,-49.194
-0.269,0.326,0.878,-12.512,-34.302,-45.776
-0.245,0.333,0.883,-11.597,-30.029,-46.082
-0.228,0.345,0.886,-9.033,-27.588,-46.509
-0.205,0.351,0.884,-6.714,-26.978,-46.753
-0.199,0.358,0.881,-5.066,-26.978,-47.058
-0.215,0.350,0.882,-4.150,-27.222,-47.729
-0.225,0.345,0.877,-3.113,-27.405,-48.096
-0.222,0.341,0.873,-3.113,-26.123,-47.058
-0.223,0.341,0.875,-4.333,-24.048,-45.593
-0.225,0.341,0.880,-6.287,-22.949,-43.701
-0.214,0.344,0.892,-8.179,-22.644,-40.710
-1.510,0.954,0.533,15.503,109.680,189.209
-1.517,0.982,0.367,12.756,110.352,215.149
-1.521,1.001,0.223,1.343,107.300,232.056
-1.561,0.980,0.198,-12.878,108.948,242.065
-1.630,0.933,0.255,-25.635,122.375,253.113
-1.622,0.903,0.259,-29.663,147.034,269.348
-1.504,0.956,0.205,-23.376,176.208,288.879
-1.309,0.988,0.217,-17.883,196.655,311.523
-1.063,0.976,0.193,-12.085,202.087,331.543
-0.844,1.031,0.182,-7.996,198.975,345.459
-0.565,1.032,0.181,-6.958,192.566,351.318
-0.270,1.083,0.188,-6.897,193.176,350.281
-0.046,1.109,0.214,-9.216,196.716,340.637
0.231,1.115,0.259,-13.794,200.623,327.454
0.549,1.136,0.296,-18.677,200.195,314.087
0.799,1.142,0.354,-25.452,189.148,299.194
1.022,1.133,0.446,-31.311,170.044,286.377
1.324,1.111,0.507,-33.447,151.245,278.625
1.621,1.091,0.558,-33.569,131.042,269.165
1.837,1.076,0.648,-33.325,112.671,253.357
1.988,1.062,0.772,-32.104,100.891,229.187
2.073,1.053,0.896,-28.198,96.558,198.120
2.110,1.047,0.990,-22.522,96.619,163.208
2.097,1.030,1.043,-14.954,96.680,128.479
2.075,0.979,1.064,-6.165,92.651,93.079
1.971,1.010,1.020,-5.859,85.815,64.575
1.856,0.956,1.026,-6.714,104.553,51.819
1.800,0.936,1.018,6.409,87.708,25.024
1.653,0.872,0.983,19.104,66.162,-0.488
1.505,0.805,0.900,21.912,53.467,-17.883
1.367,0.759,0.826,21.973,46.082,-24.841
1.219,0.705,0.788,22.583,30.579,-33.264
1.081,0.659,0.762,20.813,14.648,-46.753
0.934,0.595,0.735,17.090,5.676,-59.326
0.800,0.545,0.703,14.954,-3.235,-71.899
0.667,0.508,0.692,14.465,-12.146,-84.534
0.540,0.491,0.680,14.221,-21.729,-104.126
0.398,0.469,0.697,10.986,-23.987,-105.774
0.339,0.469,0.708,7.202,-19.287,-104.980
0.332,0.461,0.718,5.554,-18.677,-112.549
0.309,0.471,0.744,4.700,-24.536,-122.131
0.316,0.478,0.780,3.052,-33.752,-128.723
0.309,0.479,0.813,0.183,-43.213,-130.066
0.304,0.461,0.837,-2.991,-52.307,-129.211
0.303,0.454,0.848,-4.578,-63.293,-126.770
0.318,0.441,0.854,-5.249,-72.632,-123.169
0.336,0.430,0.858,-5.493,-80.383,-121.277
0.331,0.429,0.852,-4.883,-87.646,-121.094
0.311,0.423,0.841,-4.089,-92.834,-122.498
0.288,0.408,0.832,-3.845,-95.520,-124.451
0.272,0.390,0.819,-3.906,-95.642,-125.793
0.248,0.376,0.814,-4.761,-93.872,-126.099
0.214,0.363,0.813,-6.409,-91.248,-126.404
0.193,0.330,0.820,-8.362,-88.013,-126.526
0.179,0.333,0.838,-8.423,-83.252,-124.878
0.171,0.347,0.859,-7.996,-77.393,-122.681
0.162,0.354,0.886,-7.263,-71.655,-121.826
0.181,0.364,0.906,-4.211,-66.956,-120.789
0.200,0.378,0.908,0.244,-64.026,-120.789
0.197,0.387,0.894,4.456,-62.866,-122.009
0.183,0.359,0.884,6.592,-64.270,-125.427
0.133,0.333,0.880,7.874,-67.200,-126.221
0.108,0.322,0.847,10.010,-70.740,-122.437
0.088,0.307,0.815,10.620,-75.806,-118.286
0.067,0.289,0.798,9.094,-80.505,-112.610
0.043,0.288,0.789,7.263,-83.862,-105.957
0.013,0.303,0.774,5.676,-85.571,-99.243
0.005,0.333,0.771,2.380,-87.402,-92.224
-0.018,0.339,0.791,-0.977,-87.952,-87.952
-0.033,0.355,0.810,-3.174,-86.365,-84.778
-0.029,0.376,0.835,-3.723,-83.923,-83.008
-0.030,0.383,0.866,-2.991,-80.261,-82.764
-0.049,0.368,0.889,-0.732,-73.975,-84.656
-0.081,0.370,0.898,2.563,-67.444,-86.975
-0.076,0.320,0.896,4.944,-61.096,-89.294
-0.095,0.316,0.873,7.751,-53.833,-88.623
-0.110,0.327,0.837,8.850,-48.828,-88.928
-0.101,0.289,0.817,6.470,-48.096,-91.187
-0.103,0.278,0.801,5.859,-47.913,-87.463
-0.102,0.309,0.776,4.761,-47.302,-82.886
-0.094,0.304,0.777,0.183,-48.523,-79.651
-0.114,0.284,0.794,-5.188,-50.415,-78.064
-0.144,0.276,0.817,-9.094,-52.063,-76.416
-0.167,0.275,0.839,-12.024,-52.734,-73.792
-0.177,0.288,0.853,-12.817,-52.307,-70.923
-0.179,0.296,0.860,-12.634,-51.208,-68.665
-0.179,0.300,0.869,-12.329,-49.438,-66.772
-0.183,0.308,0.876,-11.169,-46.021,-65.491
-0.183,0.312,0.881,-9.949,-40.894,-64.209
-0.182,0.323,0.871,-8.789,-35.156,-62.500
-0.177,0.331,0.859,-8.667,-30.334,-60.547
-0.167,0.335,0.856,-9.583,-27.893,-58.289
-0.169,0.334,0.868,-10.925,-26.855,-57.190
-0.183,0.334,0.876,-11.902,-26.855,-56.396
-0.213,0.333,0.883,-11.719,-27.405,-56.519
-0.191,0.347,0.895,-9.766,-28.320,-54.260
-0.207,0.350,0.909,-9.338,-32.471,-44.678
-0.192,0.346,0.915,-9.338,-32.593,-45.593
-0.201,0.354,0.923,-8.850,-32.043,-46.021
-0.213,0.364,0.939,-7.874,-30.396,-45.776
1.982,0.929,0.624,-33.447,117.065,234.131
2.210,0.911,0.715,-32.471,94.299,216.309
2.323,0.894,0.807,-32.532,76.477,189.087
2.367,0.864,0.922,-31.189,67.505,154.419
2.415,0.757,1.042,-27.161,63.416,113.098
2.368,0.809,1.049,-30.090,65.979,80.505
2.291,0.712,1.126,-18.433,93.567,58.655
2.219,0.707,1.115,-2.869,61.401,17.395
2.042,0.641,1.122,9.827,33.569,-17.334
1.841,0.629,1.075,13.855,17.273,-38.818
1.604,0.599,1.054,17.456,8.240,-45.471
1.384,0.584,0.995,24.536,-3.784,-51.270
1.199,0.557,0.872,30.640,-8.667,-61.462
0.990,0.527,0.760,32.715,-7.996,-73.730
0.795,0.499,0.672,31.555,-8.240,-88.074
0.598,0.499,0.618,28.625,-7.935,-101.013
