aX,aY,aZ,gX,gY,gZ
-0.364,0.362,2.540,196.655,-33.020,42.847
-0.333,0.295,2.535,243.164,-40.955,57.556
-0.287,0.245,2.442,287.598,-46.204,74.402
-0.222,0.340,2.357,318.909,-40.833,86.731
-0.138,0.376,2.271,351.440,-30.518,94.910
-0.101,0.370,2.179,394.958,-17.151,103.821
-0.033,0.356,1.987,444.092,-3.357,112.976
0.042,0.391,1.706,495.361,9.094,124.207
0.096,0.517,1.485,534.668,18.372,134.216
0.096,0.635,1.253,569.824,26.428,139.587
0.118,0.743,0.884,606.995,35.583,144.714
0.097,0.914,0.472,628.479,53.284,152.161
0.062,0.979,0.082,635.559,80.627,153.748
0.066,0.978,-0.395,629.150,112.671,149.353
-0.008,0.878,-0.843,600.830,144.592,143.677
-0.163,0.730,-1.205,556.335,177.063,132.996
-0.278,0.654,-1.498,504.761,204.346,122.864
-0.357,0.534,-1.682,449.036,223.877,122.559
-0.435,0.469,-1.845,398.010,242.004,117.981
-0.508,0.446,-2.008,354.309,253.967,110.901
-0.621,0.435,-2.164,321.167,241.150,104.126
-0.727,0.419,-2.319,296.387,189.209,98.267
-0.801,0.379,-2.453,273.193,103.577,90.820
-0.713,0.356,-2.641,243.591,4.395,89.905
-0.427,0.275,-2.891,197.449,-71.838,88.562
-0.107,-0.013,-3.022,133.911,-99.182,79.041
0.125,-0.276,-2.793,53.589,-76.172,65.186
0.301,-0.355,-2.226,-34.912,-31.311,50.842
0.503,-0.396,-1.575,-110.962,5.981,33.203
0.679,-0.419,-1.004,-154.602,15.564,18.616
0.743,-0.465,-0.600,-169.983,3.723,0.427
0.745,-0.542,-0.358,-162.415,-18.188,-21.912
0.662,-0.667,-0.273,-143.250,-40.649,-43.274
0.543,-0.747,-0.278,-129.395,-60.669,-58.411
0.403,-0.775,-0.346,-121.155,-71.594,-62.805
0.278,-0.779,-0.416,-117.737,-68.359,-60.791
0.167,-0.785,-0.473,-117.249,-55.908,-54.993
0.081,-0.789,-0.521,-119.568,-40.283,-46.204
0.035,-0.779,-0.552,-123.474,-24.475,-33.752
0.015,-0.759,-0.579,-126.709,-10.864,-21.362
0.041,-0.743,-0.594,-128.723,-2.136,-11.780
0.050,-0.732,-0.592,-129.333,1.892,-7.080
0.082,-0.718,-0.586,-129.395,-0.427,-6.897
0.159,-0.721,-0.590,-129.272,-7.263,-7.385
0.227,-0.765,-0.546,-131.409,-15.076,-7.568
0.294,-0.801,-0.472,-138.306,-22.461,-11.108
0.319,-0.804,-0.381,-147.522,-28.687,-18.799
0.319,-0.802,-0.298,-152.283,-33.997,-27.039
0.289,-0.825,-0.260,-151.855,-37.659,-32.349
0.247,-0.830,-0.255,-147.400,-39.612,-33.325
0.217,-0.801,-0.273,-141.907,-38.208,-32.166
0.202,-0.794,-0.286,-138.123,-33.569,-31.799
0.191,-0.789,-0.291,-144.043,-26.428,-32.654
0.203,-0.782,-0.294,-152.588,-20.386,-34.485
0.196,-0.783,-0.256,-168.030,-13.245,-37.781
0.181,-0.762,-0.156,-188.232,-6.531,-39.490
0.173,-0.770,-0.056,-203.796,-2.563,-37.292
0.201,-0.706,0.070,-205.261,-0.610,-32.776
0.198,-0.759,0.165,-184.875,-2.380,-29.419
0.156,-0.804,0.223,-168.518,-8.850,-34.851
0.077,-0.841,0.208,-137.512,-22.156,-40.405
0.060,-0.793,0.152,-121.033,-34.241,-36.255
0.046,-0.744,0.103,-123.901,-39.795,-31.799
0.072,-0.716,0.064,-130.554,-37.964,-31.372
0.097,-0.670,0.070,-153.076,-26.184,-34.851
0.111,-0.644,0.140,-182.373,-8.667,-39.551
0.114,-0.591,0.270,-208.008,3.479,-42.725
0.101,-0.581,0.402,-222.290,3.662,-44.800
0.063,-0.586,0.512,-225.220,-8.484,-44.434
0.037,-0.596,0.584,-219.055,-26.978,-42.480
0.024,-0.594,0.638,-206.726,-47.852,-39.551
0.003,-0.578,0.695,-196.350,-69.336,-36.865
0.012,-0.547,0.755,-193.237,-85.693,-34.119
0.042,-0.518,0.791,-192.078,-91.614,-32.654
0.040,-0.528,0.850,-190.369,-86.548,-34.363
0.003,-0.561,0.922,-190.979,-70.068,-36.072
-0.024,-0.606,0.972,-190.857,-49.988,-34.668
-0.046,-0.644,1.009,-185.425,-30.640,-30.151
-0.064,-0.659,1.024,-172.913,-13.123,-25.757
-0.080,-0.663,1.008,-155.640,0.305,-22.217
-0.040,-0.640,0.958,-135.925,9.155,-18.921
-0.038,-0.585,0.923,-122.192,12.451,-18.799
-0.046,-0.527,0.926,-120.239,10.315,-18.982
-0.037,-0.499,0.961,-124.634,2.930,-16.174
-0.021,-0.508,1.002,-126.404,-7.996,-11.169
-0.021,-0.520,1.038,-126.892,-17.944,-7.751
-0.021,-0.538,1.055,-124.023,-23.804,-5.981
-0.002,-0.548,1.052,-116.699,-25.452,-3.601
0.001,-0.551,1.050,-106.628,-21.973,-3.845
0.018,-0.523,1.036,-93.750,-14.587,-6.226
0.010,-0.521,1.020,-81.360,-5.737,-10.864
0.005,-0.516,0.986,-69.580,6.104,-14.404
0.012,-0.488,0.955,-61.279,18.860,-14.648
-0.004,-0.465,0.957,-61.035,28.503,-13.977
-0.017,-0.464,0.964,-60.486,31.738,-11.414
-0.020,-0.464,0.967,-56.946,28.137,-8.728
-0.021,-0.445,0.970,-55.603,20.020,-6.470
0.003,-0.403,0.966,-56.946,9.399,-4.333
0.006,-0.385,0.976,-58.411,-1.587,-4.028
-0.003,-0.385,0.996,-60.730,-10.193,-4.822
-0.322,-0.090,2.847,215.332,-84.351,46.570
-0.366,-0.127,2.740,273.926,-67.444,56.396
-0.387,-0.086,2.593,328.308,-43.213,67.505
-0.385,-0.022,2.470,376.343,-22.400,77.637
-0.388,0.002,2.324,420.471,-6.348,88.440
-0.318,0.083,2.090,468.262,10.681,98.633
-0.205,0.216,1.817,507.935,26.733,108.093
-0.119,0.373,1.577,531.494,42.725,115.845
-0.004,0.542,1.322,552.185,61.646,120.117
0.059,0.624,1.028,572.083,76.111,121.521
0.108,0.710,0.621,587.891,80.750,122.070
0.178,0.825,0.156,587.219,77.454,125.488
0.246,0.782,-0.182,565.430,72.021,123.657
0.261,0.710,-0.441,532.410,62.561,111.084
0.295,0.677,-0.686,495.544,42.725,93.994
0.260,0.628,-0.853,456.909,28.015,82.214
0.205,0.623,-0.956,423.950,27.588,76.355
0.096,0.684,-1.185,405.151,33.325,74.890
-0.014,0.735,-1.643,393.616,40.833,82.642
-0.143,0.717,-2.130,366.821,59.326,97.900
-0.289,0.737,-2.526,320.068,96.313,114.258
-0.398,0.786,-2.856,265.808,128.967,131.104
-0.395,0.792,-3.080,209.595,140.503,140.320
-0.270,0.714,-3.155,148.499,132.385,142.700
-0.041,0.580,-3.002,88.623,108.582,129.272
0.155,0.395,-2.679,31.799,61.584,95.276
0.331,0.147,-2.198,-18.494,8.911,55.420
0.450,-0.096,-1.670,-57.617,-25.269,19.348
0.487,-0.345,-1.129,-87.646,-42.725,-7.019
0.497,-0.569,-0.629,-106.323,-45.654,-22.644
0.448,-0.726,-0.239,-114.380,-34.241,-31.006
0.431,-0.824,-0.013,-109.192,-26.306,-33.508
0.374,-0.912,0.016,-91.187,-22.217,-30.823
0.311,-0.952,-0.093,-71.045,-20.508,-27.344
0.238,-0.945,-0.264,-55.908,-21.179,-25.085
0.185,-0.910,-0.429,-47.302,-21.606,-22.888
0.157,-0.844,-0.577,-43.457,-23.193,-21.729
0.144,-0.773,-0.705,-42.847,-27.771,-23.376
0.111,-0.720,-0.822,-44.739,-33.020,-27.222
0.086,-0.679,-0.908,-50.293,-37.170,-29.175
0.081,-0.649,-0.937,-61.035,-38.757,-27.039
0.095,-0.622,-0.914,-74.097,-35.400,-22.034
0.147,-0.602,-0.851,-85.876,-29.602,-16.235
0.228,-0.625,-0.748,-93.994,-23.193,-10.620
0.297,-0.680,-0.640,-98.755,-19.165,-7.812
0.345,-0.710,-0.563,-100.708,-22.705,-10.315
0.354,-0.719,-0.520,-98.938,-33.020,-15.991
0.342,-0.743,-0.530,-95.154,-44.006,-21.851
0.325,-0.757,-0.569,-94.116,-50.415,-26.855
0.287,-0.758,-0.596,-98.816,-50.537,-29.968
0.258,-0.752,-0.595,-107.727,-43.152,-30.151
0.248,-0.752,-0.576,-118.286,-31.494,-27.710
0.242,-0.749,-0.558,-129.272,-21.179,-24.231
0.252,-0.733,-0.543,-139.709,-13.977,-21.179
0.251,-0.711,-0.492,-146.240,-10.071,-21.667
0.253,-0.693,-0.423,-151.245,-6.836,-25.452
0.246,-0.705,-0.350,-153.564,-3.967,-29.053
0.234,-0.740,-0.279,-151.550,-2.136,-30.640
0.226,-0.759,-0.228,-148.132,-4.028,-30.579
0.225,-0.765,-0.174,-144.592,-8.728,-28.381
0.234,-0.781,-0.117,-142.334,-12.512,-26.184
0.242,-0.805,-0.073,-141.418,-15.198,-25.024
0.239,-0.818,-0.049,-140.442,-17.273,-25.391
0.225,-0.817,-0.040,-140.015,-17.822,-26.978
0.218,-0.823,-0.034,-142.151,-15.564,-29.114
0.208,-0.835,-0.020,-146.606,-11.292,-31.311
0.206,-0.861,-0.011,-153.748,-6.836,-33.081
0.170,-0.818,0.031,-160.095,-5.859,-31.372
0.157,-0.794,0.088,-161.011,-8.850,-32.471
0.118,-0.796,0.118,-158.264,-12.390,-36.438
0.106,-0.844,0.134,-148.743,-14.954,-34.668
0.105,-0.812,0.151,-148.621,-17.090,-31.433
0.135,-0.780,0.195,-149.536,-19.958,-28.870
0.154,-0.778,0.248,-153.442,-24.597,-27.893
0.141,-0.810,0.288,-157.593,-29.236,-30.212
0.168,-0.762,0.373,-158.813,-33.020,-33.508
0.116,-0.804,0.376,-156.189,-32.715,-40.039
0.082,-0.814,0.401,-154.785,-33.447,-38.696
0.065,-0.821,0.410,-151.062,-29.907,-37.109
0.038,-0.813,0.392,-143.860,-25.574,-33.508
0.017,-0.806,0.351,-135.010,-22.217,-27.893
0.002,-0.775,0.324,-127.197,-19.287,-21.545
0.021,-0.719,0.294,-123.352,-15.625,-16.174
0.077,-0.644,0.246,-125.610,-9.827,-14.099
0.109,-0.599,0.228,-134.094,-2.502,-18.433
0.092,-0.603,0.293,-153.015,5.127,-28.198
0.067,-0.618,0.412,-173.340,6.836,-35.156
0.036,-0.629,0.542,-186.707,-0.916,-37.842
-0.024,-0.631,0.654,-188.660,-13.550,-37.720
-0.070,-0.629,0.711,-179.810,-26.917,-35.095
-0.054,-0.610,0.753,-164.185,-33.875,-29.114
-0.031,-0.580,0.801,-149.780,-33.081,-22.949
0.027,-0.533,0.823,-138.062,-27.344,-18.188
0.063,-0.489,0.873,-130.554,-17.700,-17.578
0.052,-0.476,0.972,-132.568,-5.615,-20.203
0.040,-0.506,1.073,-134.216,3.601,-21.667
0.014,-0.552,1.143,-130.371,9.338,-22.034
-0.012,-0.571,1.174,-122.864,11.536,-22.095
-0.047,-0.591,1.180,-114.380,9.888,-21.179
-0.062,-0.604,1.176,-104.980,3.357,-18.433
-0.241,-0.484,2.376,126.160,-79.590,34.058
-0.252,-0.447,2.387,160.950,-85.266,39.001
-0.313,-0.409,2.368,194.031,-82.031,41.748
-0.353,-0.437,2.315,225.342,-66.956,45.105
-0.349,-0.500,2.230,262.756,-45.105,50.964
-0.335,-0.455,2.134,294.067,-25.146,58.838
-0.327,-0.346,2.022,321.533,-12.451,67.993
-0.313,-0.215,1.942,353.149,-3.357,79.529
-0.304,-0.060,1.842,386.108,1.770,89.966
-0.274,0.063,1.687,424.377,3.052,99.487
-0.243,0.224,1.429,463.501,6.226,109.131
-0.146,0.409,1.103,492.432,10.864,116.638
-0.054,0.497,0.820,505.371,18.860,119.812
0.005,0.468,0.591,508.789,27.161,117.126
0.078,0.504,0.415,502.136,34.607,115.295
0.154,0.617,0.232,489.380,39.429,115.967
0.200,0.659,0.037,482.727,35.950,112.427
0.200,0.708,-0.259,479.248,25.940,107.056
0.195,0.803,-0.669,470.642,20.264,106.873
0.196,0.843,-1.080,451.965,29.297,114.990
0.197,0.856,-1.439,419.983,55.420,124.268
0.135,0.904,-1.754,382.141,83.740,130.676
0.030,0.958,-2.093,346.130,103.943,134.888
-0.077,1.028,-2.428,307.251,118.408,141.724
-0.145,1.060,-2.732,269.531,122.803,151.794
-0.162,1.026,-2.916,228.271,106.262,157.776
-0.069,0.972,-3.019,180.664,72.327,151.245
0.131,0.827,-3.033,127.747,31.006,128.601
0.296,0.476,-2.831,72.998,4.089,91.919
0.440,0.185,-2.387,7.019,-7.080,54.932
0.474,-0.100,-1.729,-55.420,-10.681,23.560
0.512,-0.325,-1.054,-95.703,-11.414,-5.005
0.491,-0.552,-0.493,-114.685,-9.399,-25.146
0.527,-0.730,-0.065,-113.403,-10.437,-36.377
0.497,-0.899,0.211,-91.492,-19.714,-37.598
0.418,-1.037,0.257,-56.213,-22.461,-36.133
0.351,-1.098,0.138,-24.170,-16.968,-36.072
0.290,-1.080,-0.043,-2.625,-9.094,-30.090
0.190,-1.005,-0.255,10.010,-1.526,-20.020
0.109,-0.921,-0.469,17.761,7.141,-11.108
0.074,-0.838,-0.662,21.179,16.479,-2.441
0.060,-0.743,-0.823,18.921,21.057,5.676
0.106,-0.653,-0.945,13.672,17.700,10.376
0.174,-0.585,-1.030,6.470,10.620,9.521
0.223,-0.570,-1.068,-2.197,1.831,3.174
0.268,-0.574,-1.042,-13.489,-6.592,-3.296
0.287,-0.578,-0.942,-25.635,-11.780,-8.972
0.284,-0.586,-0.837,-33.447,-13.550,-13.977
0.274,-0.604,-0.769,-35.645,-13.123,-14.709
0.277,-0.628,-0.731,-34.912,-11.353,-10.925
0.283,-0.650,-0.710,-33.752,-8.118,-5.859
0.289,-0.658,-0.715,-33.569,-3.418,-1.160
0.296,-0.641,-0.738,-34.241,-0.305,2.136
0.314,-0.634,-0.781,-36.072,0.977,1.587
0.310,-0.621,-0.825,-39.734,2.319,-1.404
0.300,-0.599,-0.892,-46.082,2.014,-5.737
0.282,-0.572,-0.945,-55.176,-0.427,-10.864
0.246,-0.540,-0.998,-64.270,-3.296,-15.564
0.208,-0.531,-0.993,-72.449,-7.263,-19.836
0.158,-0.496,-0.975,-81.848,-10.986,-21.179
0.130,-0.480,-0.933,-90.088,-12.878,-19.592
0.111,-0.480,-0.903,-93.811,-11.414,-15.076
0.112,-0.483,-0.896,-95.093,-9.766,-9.827
0.136,-0.494,-0.889,-97.961,-8.057,-6.042
0.154,-0.503,-0.878,-101.563,-6.653,-4.028
0.156,-0.519,-0.863,-107.178,-5.066,-3.723
0.163,-0.533,-0.855,-113.159,-3.296,-3.723
0.181,-0.542,-0.860,-120.972,-2.319,-3.662
0.202,-0.543,-0.864,-131.897,-2.747,-5.005
0.209,-0.543,-0.837,-145.996,-3.296,-9.399
0.198,-0.536,-0.800,-161.682,-4.150,-15.137
0.210,-0.531,-0.727,-177.612,-7.080,-20.142
0.208,-0.538,-0.635,-190.491,-11.108,-25.940
0.189,-0.542,-0.540,-201.782,-16.296,-32.654
0.165,-0.535,-0.455,-208.984,-22.888,-37.354
0.141,-0.539,-0.380,-209.473,-31.006,-39.612
0.116,-0.541,-0.334,-207.153,-35.828,-39.856
0.137,-0.543,-0.320,-204.346,-36.133,-38.940
0.164,-0.546,-0.294,-204.468,-30.212,-38.025
0.170,-0.562,-0.249,-210.083,-18.799,-38.086
0.177,-0.582,-0.194,-217.468,-10.010,-39.185
0.163,-0.601,-0.138,-223.328,-6.409,-38.757
0.157,-0.594,-0.084,-228.210,-5.859,-36.194
0.148,-0.573,-0.049,-233.215,-9.033,-34.241
0.149,-0.547,-0.034,-238.647,-14.648,-34.912
0.167,-0.518,0.003,-246.704,-17.395,-39.124
0.149,-0.501,0.110,-261.047,-14.771,-45.837
0.119,-0.501,0.276,-274.475,-11.780,-50.537
0.101,-0.517,0.474,-281.860,-13.184,-49.988
0.077,-0.540,0.667,-279.968,-18.555,-45.654
0.056,-0.555,0.797,-263.184,-26.184,-38.940
0.090,-0.556,0.834,-235.046,-32.532,-32.471
0.111,-0.561,0.818,-208.069,-32.898,-29.602
0.107,-0.576,0.811,-192.078,-25.879,-30.579
0.077,-0.597,0.840,-186.096,-16.357,-32.043
0.083,-0.598,0.887,-186.707,-8.484,-30.273
0.101,-0.589,0.959,-189.880,-4.822,-26.978
0.087,-0.595,1.028,-192.932,-5.066,-26.978
0.081,-0.605,1.082,-191.223,-10.132,-29.297
0.066,-0.627,1.177,-185.059,-18.982,-32.227
-0.216,-0.328,2.681,136.536,-79.224,42.908
-0.270,-0.320,2.725,186.462,-84.717,43.457
-0.353,-0.375,2.681,236.084,-77.087,41.138
-0.389,-0.444,2.568,286.011,-56.702,46.021
-0.381,-0.415,2.441,325.745,-32.288,58.899
-0.398,-0.291,2.361,352.539,-15.076,75.134
-0.391,-0.165,2.292,386.719,-3.418,88.135
-0.367,-0.056,2.182,433.838,5.432,99.976
-0.304,0.113,2.015,479.431,9.521,115.051
-0.275,0.327,1.766,518.982,10.254,130.005
-0.185,0.550,1.405,557.129,13.977,143.127
-0.116,0.754,0.957,580.139,24.292,152.832
-0.000,0.841,0.508,584.167,38.269,153.503
0.109,0.837,0.153,569.092,53.772,149.231
0.166,0.916,-0.112,541.931,65.125,141.479
0.283,0.953,-0.366,518.982,60.120,131.348
0.323,0.917,-0.592,495.544,48.279,118.103
0.311,0.903,-0.842,467.468,41.504,104.797
0.338,0.905,-1.121,437.378,37.537,98.694
0.304,0.911,-1.406,405.212,41.443,100.220
0.185,0.949,-1.742,373.047,50.171,101.074
0.115,1.019,-2.115,338.745,57.312,102.844
0.042,1.074,-2.470,298.279,61.829,109.497
-0.032,1.106,-2.772,250.854,62.988,114.807
-0.081,1.089,-2.988,199.158,57.190,114.868
-0.020,0.999,-3.098,143.860,42.908,109.741
0.104,0.756,-3.019,84.229,29.419,94.727
0.250,0.447,-2.659,19.897,23.071,70.801
0.355,0.240,-2.086,-43.640,18.127,44.006
0.417,-0.033,-1.472,-86.975,11.230,20.020
0.458,-0.305,-0.919,-103.943,-1.099,-1.160
0.486,-0.575,-0.480,-103.699,-11.230,-17.639
0.474,-0.787,-0.151,-98.206,-14.343,-34.363
0.449,-0.951,0.054,-87.280,-19.836,-38.208
0.385,-1.034,0.113,-69.519,-19.958,-36.926
0.318,-1.037,0.046,-48.279,-17.822,-29.602
0.245,-1.048,-0.116,-25.208,-11.292,-23.437
0.181,-1.004,-0.281,-10.986,-4.700,-17.212
0.121,-0.922,-0.447,-3.235,1.709,-7.507
0.106,-0.848,-0.607,1.648,7.507,0.427
0.152,-0.771,-0.737,3.906,7.629,4.822
0.180,-0.713,-0.815,1.831,3.113,4.700
0.196,-0.676,-0.846,-0.977,-2.563,0.793
0.220,-0.647,-0.860,-4.944,-7.996,-3.967
0.253,-0.633,-0.848,-9.033,-13.000,-6.226
0.285,-0.630,-0.825,-13.062,-16.357,-7.019
0.317,-0.641,-0.797,-17.334,-17.517,-8.423
0.333,-0.650,-0.767,-21.484,-17.273,-10.010
0.343,-0.657,-0.746,-24.414,-18.188,-10.498
0.344,-0.662,-0.738,-26.306,-18.738,-10.315
0.342,-0.655,-0.746,-28.625,-17.517,-10.742
0.340,-0.643,-0.776,-31.372,-15.564,-10.986
0.339,-0.628,-0.815,-35.339,-14.465,-10.559
0.327,-0.616,-0.850,-41.992,-13.062,-12.024
0.312,-0.598,-0.873,-50.476,-12.451,-14.648
0.300,-0.574,-0.880,-58.777,-13.000,-16.724
0.271,-0.538,-0.870,-67.017,-14.465,-18.921
0.232,-0.519,-0.857,-73.303,-14.526,-21.423
0.221,-0.519,-0.846,-75.317,-13.306,-21.729
0.241,-0.522,-0.824,-78.613,-11.841,-19.470
0.238,-0.546,-0.793,-80.811,-11.169,-16.602
0.241,-0.576,-0.779,-83.740,-11.902,-16.296
0.244,-0.587,-0.783,-88.257,-13.489,-17.456
0.239,-0.589,-0.799,-94.482,-14.099,-17.822
0.225,-0.585,-0.812,-102.295,-13.000,-18.188
0.215,-0.574,-0.825,-111.572,-10.925,-18.188
0.208,-0.559,-0.833,-121.399,-8.606,-17.883
0.199,-0.549,-0.831,-131.104,-5.981,-17.639
0.192,-0.524,-0.819,-141.479,-4.150,-18.005
0.199,-0.501,-0.786,-152.039,-3.784,-18.677
0.199,-0.493,-0.742,-161.865,-3.113,-19.409
0.206,-0.494,-0.693,-171.204,-3.235,-21.484
0.234,-0.507,-0.648,-179.321,-5.554,-24.536
0.243,-0.499,-0.594,-188.293,-9.033,-28.137
0.227,-0.499,-0.534,-195.984,-13.733,-32.166
0.220,-0.522,-0.472,-202.454,-19.104,-35.706
0.211,-0.530,-0.401,-210.510,-21.667,-38.452
0.206,-0.520,-0.334,-217.529,-21.240,-40.161
0.196,-0.509,-0.262,-223.389,-18.860,-42.236
0.171,-0.512,-0.182,-229.187,-15.259,-44.922
0.160,-0.515,-0.106,-234.070,-11.597,-46.753
0.158,-0.516,-0.042,-236.938,-6.409,-47.180
0.145,-0.513,0.019,-239.319,0.122,-47.607
0.147,-0.533,0.099,-243.469,7.324,-47.119
0.159,-0.546,0.194,-248.657,13.916,-46.570
0.169,-0.537,0.287,-251.160,16.052,-46.448
0.174,-0.519,0.370,-250.366,11.780,-46.997
0.172,-0.515,0.437,-246.460,3.235,-47.913
0.155,-0.539,0.510,-241.821,-6.104,-50.964
0.132,-0.543,0.601,-239.502,-11.475,-54.138
0.133,-0.517,0.688,-236.145,-13.306,-54.565
0.152,-0.502,0.787,-233.643,-11.963,-55.420
0.140,-0.532,0.931,-234.924,-7.446,-58.044
0.128,-0.575,1.079,-234.192,-3.784,-57.556
0.131,-0.606,1.202,-224.915,-5.005,-54.932
0.068,-0.634,1.274,-210.266,-10.498,-54.443
0.001,-0.664,1.286,-192.444,-16.479,-53.528
-0.038,-0.702,1.256,-172.180,-21.362,-48.157
-0.068,-0.720,1.205,-154.907,-26.001,-40.039
-0.063,-0.705,1.138,-143.860,-28.198,-33.691
-0.318,-0.503,2.409,126.831,-84.717,45.715
-0.319,-0.481,2.465,164.246,-85.693,54.016
-0.347,-0.419,2.425,206.055,-84.167,61.646
-0.376,-0.358,2.350,251.160,-79.956,70.374
-0.410,-0.296,2.310,294.861,-69.092,74.646
-0.429,-0.235,2.234,330.933,-55.359,80.200
-0.423,-0.168,2.120,372.559,-45.166,95.398
-0.423,-0.068,1.950,416.077,-29.480,111.694
-0.384,0.084,1.773,458.191,-15.686,127.869
-0.343,0.291,1.511,501.648,-1.953,144.592
-0.230,0.421,1.242,548.889,11.169,161.682
-0.145,0.531,0.976,583.984,23.437,178.650
-0.086,0.605,0.731,600.464,29.297,190.430
-0.029,0.661,0.481,604.919,33.081,198.486
-0.001,0.740,0.225,597.595,41.504,205.139
0.060,0.818,-0.034,581.726,51.147,212.585
0.166,0.864,-0.309,556.824,55.298,215.515
0.236,0.916,-0.560,521.118,58.472,207.336
0.313,0.843,-0.795,489.868,61.462,192.871
0.358,0.770,-0.998,452.698,57.190,178.589
0.328,0.810,-1.211,403.870,49.866,165.710
0.299,0.864,-1.411,355.347,49.744,155.640
0.298,0.895,-1.625,311.462,59.204,145.996
0.293,0.923,-1.854,268.921,67.261,133.301
0.245,0.964,-2.051,225.647,68.665,118.896
0.181,1.028,-2.226,183.105,62.622,106.506
0.103,1.052,-2.349,143.616,51.636,97.900
0.062,1.009,-2.452,105.896,40.771,93.018
0.097,0.883,-2.461,67.993,30.334,85.938
0.195,0.663,-2.363,24.902,17.273,76.294
0.267,0.456,-2.074,-17.883,15.869,56.030
0.310,0.246,-1.678,-55.786,13.489,34.729
0.338,0.013,-1.290,-80.688,9.033,14.709
0.381,-0.201,-0.932,-91.492,3.235,-2.136
0.414,-0.393,-0.650,-92.590,0.977,-12.390
0.468,-0.521,-0.434,-85.266,-2.563,-16.907
0.501,-0.652,-0.308,-66.528,-7.690,-15.564
0.506,-0.764,-0.276,-46.326,-6.775,-17.944
0.506,-0.802,-0.320,-32.104,-4.944,-23.987
0.465,-0.784,-0.402,-23.010,-5.432,-30.457
0.398,-0.739,-0.508,-15.747,-8.545,-34.546
0.346,-0.690,-0.641,-9.766,-12.756,-35.278
0.317,-0.639,-0.768,-7.324,-14.526,-33.875
0.304,-0.586,-0.877,-8.240,-15.503,-31.616
0.303,-0.529,-0.950,-13.428,-16.052,-30.457
0.301,-0.508,-0.967,-20.874,-14.038,-29.724
0.287,-0.494,-0.952,-29.236,-9.277,-29.358
0.284,-0.483,-0.916,-35.461,-6.592,-27.466
0.304,-0.486,-0.882,-38.696,-4.333,-23.132
0.335,-0.515,-0.844,-39.795,-1.038,-18.372
0.358,-0.539,-0.811,-41.504,1.038,-15.503
0.378,-0.550,-0.804,-43.823,1.831,-14.648
0.371,-0.561,-0.815,-46.265,3.357,-15.198
0.363,-0.552,-0.834,-50.171,4.333,-15.930
0.353,-0.534,-0.852,-55.664,3.723,-16.663
0.332,-0.507,-0.881,-61.157,1.465,-18.738
0.328,-0.494,-0.923,-66.833,-1.221,-21.057
0.316,-0.460,-0.951,-75.073,-2.319,-24.170
0.290,-0.427,-0.971,-83.557,-2.930,-27.039
0.266,-0.413,-0.981,-91.675,-5.432,-28.809
0.249,-0.412,-0.977,-99.243,-7.690,-28.748
0.236,-0.430,-0.945,-107.361,-7.568,-28.625
0.236,-0.456,-0.910,-114.380,-6.897,-27.893
0.262,-0.474,-0.872,-122.375,-5.615,-26.917
0.277,-0.489,-0.803,-130.737,-2.686,-26.123
0.286,-0.510,-0.746,-136.108,1.160,-26.245
0.317,-0.532,-0.703,-138.062,1.282,-27.771
0.304,-0.541,-0.687,-139.587,-1.343,-30.212
0.285,-0.546,-0.689,-140.015,-4.456,-32.043
0.271,-0.550,-0.714,-141.418,-7.507,-33.447
0.251,-0.530,-0.722,-146.851,-7.690,-35.278
0.254,-0.525,-0.714,-150.940,-5.188,-36.194
0.259,-0.534,-0.704,-155.396,-4.211,-37.598
0.249,-0.547,-0.688,-163.391,-3.113,-41.138
0.237,-0.556,-0.659,-173.584,-2.563,-45.532
0.238,-0.552,-0.606,-184.326,-2.747,-48.157
0.223,-0.548,-0.538,-193.237,-2.197,-50.659
0.211,-0.553,-0.481,-198.853,-2.380,-53.406
0.201,-0.562,-0.432,-201.843,-4.333,-55.908
0.175,-0.546,-0.410,-204.224,-6.958,-57.495
0.172,-0.535,-0.417,-206.360,-9.827,-58.838
0.147,-0.536,-0.414,-212.463,-8.362,-61.890
0.122,-0.548,-0.380,-222.839,-3.601,-66.101
0.109,-0.534,-0.311,-236.694,-0.427,-67.139
0.095,-0.503,-0.210,-251.160,0.671,-65.674
0.082,-0.479,-0.094,-262.939,1.038,-66.101
0.097,-0.451,0.005,-268.616,-0.977,-68.359
0.098,-0.446,0.100,-271.118,-5.554,-71.960
0.059,-0.490,0.212,-273.010,-6.104,-76.538
0.044,-0.528,0.324,-274.170,-3.479,-77.637
0.029,-0.558,0.439,-275.757,-1.343,-74.585
-0.000,-0.558,0.555,-276.062,1.587,-68.420
-0.022,-0.537,0.676,-270.813,5.737,-60.852
-0.032,-0.528,0.768,-256.897,9.888,-52.856
-0.018,-0.526,0.812,-237.305,11.414,-45.532
0.034,-0.500,0.809,-219.666,11.597,-41.626
0.059,-0.504,0.825,-210.937,14.221,-42.908
0.061,-0.554,0.912,-210.571,17.761,-45.349
0.044,-0.611,1.024,-215.515,13.489,-43.396
0.016,-0.636,1.127,-219.910,1.831,-39.856
-0.297,-0.560,2.545,171.387,-101.440,37.781
-0.331,-0.518,2.537,214.905,-85.754,47.791
-0.347,-0.481,2.498,255.981,-66.895,57.068
-0.375,-0.452,2.375,300.049,-44.434,67.139
-0.393,-0.420,2.235,338.501,-20.630,77.148
-0.358,-0.392,2.123,371.155,-3.235,88.928
-0.336,-0.280,2.080,397.156,6.775,103.516
-0.311,-0.079,2.012,427.124,7.263,115.356
-0.219,0.095,1.826,472.961,0.916,125.671
-0.176,0.270,1.589,516.418,-5.249,137.024
-0.148,0.475,1.365,550.232,-12.268,146.851
-0.068,0.671,1.034,581.970,-18.494,157.776
0.022,0.802,0.600,598.328,-16.235,166.016
0.085,0.830,0.180,595.154,-3.845,168.457
0.178,0.848,-0.132,574.219,10.254,170.471
0.236,0.920,-0.311,535.950,19.531,172.180
0.280,0.984,-0.484,499.573,24.353,168.091
0.340,1.023,-0.702,471.191,22.400,157.837
0.358,1.050,-0.965,444.946,16.174,146.973
0.369,1.058,-1.249,416.077,12.146,136.780
0.338,1.080,-1.560,381.531,14.648,126.587
0.322,1.098,-1.854,342.041,18.005,119.080
0.230,1.137,-2.138,296.387,24.841,116.699
0.222,1.173,-2.380,247.620,32.288,116.943
0.196,1.196,-2.569,197.449,33.386,115.845
0.176,1.162,-2.675,147.095,26.550,108.948
0.187,0.998,-2.692,97.961,17.395,96.497
0.267,0.782,-2.572,46.570,11.169,82.581
0.335,0.502,-2.230,-2.808,11.414,62.195
0.374,0.279,-1.772,-46.570,15.076,37.048
0.381,0.036,-1.325,-74.341,15.320,20.325
0.402,-0.239,-0.932,-84.167,16.296,9.399
0.480,-0.476,-0.603,-88.928,12.573,-1.404
0.536,-0.671,-0.348,-86.975,6.592,-5.005
0.535,-0.812,-0.179,-77.698,6.775,-8.728
0.546,-0.858,-0.109,-64.209,2.869,-15.625
0.497,-0.888,-0.177,-42.297,-2.319,-18.738
0.423,-0.900,-0.327,-20.691,-3.662,-25.024
0.359,-0.857,-0.484,-8.789,-4.639,-28.564
0.290,-0.793,-0.645,-4.211,-4.883,-28.687
0.255,-0.708,-0.793,-5.310,-5.249,-27.222
0.254,-0.629,-0.917,-10.010,-5.798,-24.414
0.276,-0.536,-1.001,-17.822,-7.324,-23.560
0.242,-0.482,-0.982,-27.161,-7.324,-26.001
0.197,-0.477,-0.948,-31.982,-4.028,-26.855
0.222,-0.482,-0.939,-33.813,-2.808,-22.400
0.268,-0.486,-0.930,-36.133,-3.601,-16.357
0.323,-0.512,-0.902,-39.063,-3.967,-13.489
0.362,-0.533,-0.878,-43.030,-5.493,-14.038
0.386,-0.537,-0.867,-48.279,-8.789,-16.479
0.406,-0.542,-0.867,-53.772,-10.376,-19.226
0.409,-0.542,-0.872,-60.242,-9.521,-23.743
0.397,-0.523,-0.887,-67.749,-9.766,-30.396
0.383,-0.489,-0.902,-75.684,-12.146,-37.781
0.322,-0.467,-0.911,-83.801,-12.634,-44.373
0.261,-0.458,-0.925,-90.393,-11.597,-47.241
0.237,-0.430,-0.938,-97.412,-11.108,-45.349
0.225,-0.401,-0.949,-105.164,-9.827,-40.710
0.231,-0.415,-0.945,-111.145,-6.165,-35.461
0.261,-0.448,-0.921,-118.042,-2.563,-33.203
0.273,-0.478,-0.871,-127.686,-0.488,-33.630
0.280,-0.508,-0.812,-136.902,0.427,-35.278
0.300,-0.533,-0.766,-145.142,-0.488,-37.170
0.296,-0.551,-0.723,-153.381,-1.282,-40.466
0.267,-0.560,-0.682,-160.095,-1.709,-44.678
0.239,-0.570,-0.657,-164.001,-3.418,-46.753
0.244,-0.574,-0.638,-167.297,-4.517,-46.875
0.225,-0.575,-0.614,-171.387,-2.319,-47.180
0.202,-0.584,-0.586,-175.903,0.061,-47.852
0.205,-0.594,-0.568,-180.054,1.648,-46.021
0.198,-0.607,-0.546,-185.425,5.249,-43.762
0.195,-0.595,-0.524,-192.261,9.827,-43.152
0.181,-0.590,-0.501,-199.524,13.245,-43.274
0.179,-0.599,-0.464,-205.811,16.296,-43.274
0.179,-0.599,-0.406,-213.562,18.616,-43.945
0.177,-0.594,-0.341,-221.191,19.165,-46.448
0.164,-0.598,-0.266,-226.196,16.602,-50.293
0.130,-0.602,-0.178,-229.431,12.085,-53.894
0.108,-0.602,-0.089,-229.004,5.920,-54.810
0.085,-0.619,-0.007,-223.572,-0.793,-53.406
0.076,-0.634,0.040,-215.515,-6.836,-51.025
0.093,-0.634,0.047,-208.130,-11.047,-48.340
0.096,-0.631,0.049,-205.688,-10.986,-47.852
0.094,-0.616,0.048,-209.045,-6.958,-48.767
0.092,-0.610,0.059,-217.163,-0.610,-49.866
0.066,-0.598,0.100,-227.966,8.850,-50.781
0.053,-0.586,0.198,-238.708,17.456,-49.866
0.022,-0.568,0.346,-249.634,23.987,-46.692
0.028,-0.536,0.478,-251.831,24.902,-42.114
0.053,-0.512,0.573,-243.652,16.174,-39.368
0.028,-0.526,0.643,-236.267,3.601,-40.771
-0.010,-0.546,0.682,-230.896,-7.324,-41.504
0.007,-0.556,0.727,-225.342,-14.648,-39.917
-0.028,-0.549,0.785,-223.206,-19.531,-41.077
-0.059,-0.541,0.829,-221.985,-22.095,-41.748
-0.034,-0.539,0.901,-218.872,-21.729,-39.307
-0.053,-0.541,1.044,-217.834,-18.677,-37.415
-0.079,-0.539,1.206,-214.905,-14.526,-33.508
-0.067,-0.550,1.318,-197.693,-11.780,-25.757
-0.042,-0.576,1.358,-168.579,-8.484,-17.761
-0.267,-0.501,2.429,140.503,-63.904,36.255
-0.305,-0.529,2.524,176.147,-72.266,42.236
-0.370,-0.557,2.599,216.064,-71.289,50.293
-0.414,-0.559,2.665,260.254,-59.204,62.500
-0.442,-0.462,2.630,307.007,-39.795,76.904
-0.420,-0.380,2.485,362.732,-18.799,92.102
-0.410,-0.281,2.259,416.870,5.127,107.300
-0.348,-0.145,1.973,458.923,31.494,122.559
-0.249,-0.002,1.666,484.863,56.213,136.047
-0.184,0.052,1.459,494.995,77.637,143.921
-0.135,0.125,1.357,498.779,91.309,145.691
-0.054,0.285,1.175,509.460,91.736,146.301
0.001,0.411,0.991,523.254,87.341,148.071
0.005,0.506,0.815,532.410,86.487,146.362
0.057,0.586,0.622,537.598,85.938,142.639
0.142,0.684,0.322,534.729,82.642,140.198
0.222,0.720,-0.012,522.949,72.266,129.944
0.292,0.772,-0.414,498.779,62.378,110.840
0.314,0.728,-0.757,461.731,58.594,90.454
0.280,0.714,-0.984,413.452,67.078,74.463
0.253,0.773,-1.147,365.784,74.890,65.979
0.176,0.875,-1.356,322.266,73.486,61.523
0.147,0.977,-1.663,290.039,71.899,56.030
0.055,1.036,-2.028,265.625,60.913,47.302
-0.060,1.081,-2.399,236.755,40.039,38.879
-0.222,1.134,-2.714,198.608,23.682,34.973
-0.282,1.142,-2.903,153.870,14.465,37.415
-0.268,1.074,-2.944,107.605,9.338,43.701
-0.204,0.871,-2.822,59.021,3.662,47.058
-0.064,0.577,-2.483,8.240,0.000,43.152
0.056,0.318,-1.997,-41.809,1.709,36.438
0.214,0.061,-1.488,-78.674,6.775,33.813
0.387,-0.249,-0.966,-98.206,10.193,29.419
0.504,-0.542,-0.458,-105.286,9.583,19.165
0.549,-0.758,-0.083,-99.121,8.240,7.080
0.575,-0.905,0.096,-77.637,1.465,-2.625
0.576,-1.021,0.102,-47.913,-7.080,-8.545
0.533,-1.064,-0.013,-23.682,-13.245,-16.724
0.435,-1.050,-0.187,-6.836,-17.822,-19.287
0.314,-0.991,-0.389,4.028,-13.672,-22.644
0.246,-0.877,-0.580,7.324,-9.216,-25.513
0.216,-0.781,-0.751,7.507,-8.911,-24.536
0.187,-0.712,-0.881,4.822,-14.526,-25.879
0.138,-0.676,-0.906,-2.441,-21.057,-31.006
0.045,-0.633,-0.866,-10.559,-19.043,-32.654
0.038,-0.590,-0.860,-11.963,-13.184,-26.978
0.123,-0.594,-0.871,-8.667,-12.207,-16.846
0.189,-0.623,-0.860,-7.751,-11.902,-7.874
0.251,-0.664,-0.828,-10.681,-10.986,-3.479
0.310,-0.657,-0.799,-17.151,-9.460,-2.075
0.362,-0.644,-0.807,-22.217,-9.277,-3.052
0.405,-0.648,-0.837,-26.550,-12.390,-7.324
0.427,-0.637,-0.859,-33.630,-18.738,-15.930
0.412,-0.620,-0.813,-42.603,-28.503,-27.405
0.327,-0.598,-0.702,-50.171,-33.508,-37.720
0.204,-0.579,-0.645,-49.805,-30.090,-42.664
0.151,-0.602,-0.696,-40.710,-26.550,-39.368
0.137,-0.590,-0.788,-35.278,-25.085,-29.114
0.123,-0.568,-0.858,-37.231,-17.639,-16.113
0.126,-0.556,-0.912,-44.067,-6.531,-6.042
0.168,-0.544,-0.950,-53.162,2.075,0.427
0.226,-0.516,-0.977,-64.514,7.019,4.639
0.258,-0.498,-0.996,-74.646,5.554,4.578
0.273,-0.472,-0.987,-84.045,-2.441,-0.366
0.266,-0.490,-0.984,-91.431,-11.475,-8.789
0.233,-0.511,-0.903,-103.394,-17.944,-19.287
0.155,-0.506,-0.817,-113.220,-19.531,-26.184
0.105,-0.469,-0.804,-115.967,-16.968,-26.123
0.115,-0.449,-0.847,-113.037,-16.479,-21.912
0.128,-0.444,-0.906,-111.145,-13.184,-16.052
0.153,-0.474,-0.962,-115.112,-7.568,-10.986
0.190,-0.469,-1.004,-129.639,-2.136,-9.827
0.237,-0.443,-1.026,-151.245,2.991,-12.329
0.269,-0.427,-1.007,-176.147,5.310,-18.066
0.284,-0.410,-0.955,-202.271,2.441,-27.344
0.284,-0.396,-0.840,-226.562,-6.714,-39.001
0.220,-0.390,-0.633,-246.216,-16.724,-50.598
0.104,-0.374,-0.479,-256.104,-19.897,-58.044
0.063,-0.360,-0.396,-250.000,-21.912,-57.495
0.051,-0.381,-0.362,-238.708,-22.400,-49.255
0.059,-0.391,-0.381,-230.164,-15.686,-39.185
0.085,-0.381,-0.415,-231.384,-6.226,-32.898
0.098,-0.370,-0.423,-240.967,5.188,-27.588
0.116,-0.354,-0.406,-255.615,14.282,-23.254
0.145,-0.321,-0.357,-272.888,17.761,-21.301
0.188,-0.276,-0.270,-293.457,15.564,-23.315
0.230,-0.228,-0.143,-315.796,7.751,-29.846
0.228,-0.212,0.042,-335.449,-8.057,-41.565
0.125,-0.275,0.401,-352.112,-25.330,-54.810
0.014,-0.245,0.682,-357.849,-32.104,-60.669
0.031,-0.155,0.796,-335.327,-39.001,-54.932
0.117,-0.180,0.795,-298.706,-42.053,-46.631
0.151,-0.226,0.813,-280.457,-33.081,-47.974
0.142,-0.207,0.927,-288.940,-20.325,-55.054
0.106,-0.255,1.180,-302.429,-10.559,-58.777
0.059,-0.302,1.485,-309.448,-8.911,-55.725
0.042,-0.348,1.742,-299.927,-21.301,-49.500
0.011,-0.414,1.949,-274.048,-37.781,-45.227
-0.023,-0.477,2.057,-236.389,-45.837,-42.969
-0.006,-0.536,2.048,-192.383,-48.889,-38.574
-0.303,-0.608,2.494,263.916,-29.358,55.786
-0.309,-0.530,2.548,295.349,-14.282,69.702
-0.285,-0.427,2.647,331.848,2.625,84.839
-0.278,-0.289,2.678,374.817,21.973,100.220
-0.262,-0.067,2.495,429.810,46.143,114.685
-0.187,0.250,2.026,489.014,73.975,125.671
-0.056,0.464,1.391,538.635,93.872,127.686
0.042,0.499,0.811,566.772,99.670,120.300
0.144,0.501,0.335,561.829,96.436,106.384
0.147,0.505,0.117,528.748,77.759,85.327
0.092,0.473,0.089,492.737,51.880,64.392
0.226,0.627,-0.054,467.896,23.804,55.603
0.443,0.849,-0.325,455.688,-14.221,47.119
0.468,0.897,-0.567,446.960,-64.392,22.583
0.315,0.846,-0.815,431.885,-93.140,4.333
0.206,0.912,-1.177,411.316,-83.801,13.306
0.172,0.958,-1.616,385.071,-53.894,38.391
0.061,0.930,-1.970,344.971,-13.672,62.500
-0.042,1.029,-2.291,294.495,35.767,88.135
-0.031,1.148,-2.617,247.009,78.064,114.685
-0.006,1.176,-2.928,205.261,100.464,133.362
0.001,1.051,-3.084,158.936,99.182,135.315
0.046,0.846,-2.981,103.333,85.022,122.559
0.124,0.609,-2.600,44.006,64.331,101.013
0.189,0.364,-2.091,-4.883,36.133,73.425
0.163,0.017,-1.515,-40.527,12.939,45.959
0.238,-0.282,-1.029,-60.852,9.399,37.170
0.354,-0.563,-0.584,-65.186,6.958,30.396
0.473,-0.831,-0.233,-63.049,4.028,24.902
0.533,-0.998,0.003,-55.542,3.723,17.517
0.546,-1.079,0.108,-42.480,2.319,7.080
0.495,-1.095,0.090,-23.743,-2.014,-2.136
0.408,-1.043,-0.044,-3.967,-7.385,-11.719
0.316,-0.986,-0.249,15.320,-13.733,-13.123
0.224,-0.882,-0.478,29.236,-12.939,-14.404
0.148,-0.780,-0.696,36.011,-11.719,-14.465
0.105,-0.719,-0.864,36.926,-11.475,-10.437
0.128,-0.621,-0.986,30.212,-9.766,-5.737
0.153,-0.570,-1.036,22.583,-7.446,-1.099
0.200,-0.556,-1.043,13.977,-6.897,1.099
0.287,-0.560,-1.026,5.127,-8.179,1.465
0.324,-0.599,-0.893,-4.822,-10.559,-0.305
0.308,-0.615,-0.773,-13.306,-7.874,-2.319
0.310,-0.661,-0.698,-13.611,-3.540,-1.099
0.346,-0.688,-0.654,-10.010,-1.770,2.319
0.369,-0.705,-0.628,-7.263,-2.625,4.150
0.361,-0.710,-0.624,-4.883,-5.737,3.052
0.354,-0.714,-0.630,-2.319,-8.057,0.183
0.349,-0.695,-0.670,-1.953,-9.094,-2.319
0.348,-0.662,-0.731,-2.930,-8.972,-5.188
0.336,-0.640,-0.783,-6.592,-9.277,-9.277
0.338,-0.607,-0.829,-11.475,-9.460,-12.756
0.330,-0.609,-0.857,-17.395,-11.536,-15.991
0.309,-0.595,-0.822,-25.635,-12.756,-19.592
0.236,-0.591,-0.750,-33.630,-8.789,-20.752
0.198,-0.567,-0.722,-35.156,-3.601,-17.822
0.207,-0.538,-0.739,-29.785,-2.502,-10.559
0.221,-0.567,-0.772,-22.766,-2.808,-4.517
0.242,-0.594,-0.830,-19.775,-3.052,-2.930
0.271,-0.589,-0.877,-23.804,-2.502,-2.686
0.290,-0.573,-0.903,-31.494,-1.160,-2.502
0.309,-0.551,-0.938,-39.734,-2.014,-4.272
0.322,-0.531,-0.987,-48.218,-6.287,-9.277
0.320,-0.508,-1.027,-58.411,-12.207,-16.235
0.307,-0.490,-1.050,-70.129,-18.250,-22.400
0.286,-0.448,-1.055,-83.069,-22.522,-29.053
0.242,-0.426,-1.047,-96.985,-23.499,-34.790
0.195,-0.405,-1.045,-108.459,-23.254,-38.086
0.157,-0.369,-1.026,-118.469,-22.827,-39.124
0.133,-0.358,-1.009,-125.916,-19.775,-37.720
0.133,-0.348,-1.010,-131.470,-14.465,-35.034
0.122,-0.366,-0.998,-138.184,-7.690,-30.640
0.134,-0.370,-0.980,-148.682,0.000,-25.635
0.164,-0.361,-0.951,-160.461,6.348,-21.362
0.201,-0.358,-0.911,-172.485,10.864,-19.592
0.222,-0.364,-0.865,-184.937,12.451,-21.362
0.233,-0.378,-0.814,-197.693,9.766,-25.330
0.234,-0.383,-0.757,-210.999,4.333,-30.029
0.227,-0.383,-0.696,-224.976,-1.953,-36.011
0.215,-0.373,-0.624,-239.258,-7.751,-42.358
0.187,-0.367,-0.545,-252.258,-11.047,-48.584
0.153,-0.360,-0.459,-262.573,-13.245,-53.284
0.140,-0.344,-0.371,-270.813,-15.198,-56.213
0.104,-0.334,-0.301,-275.269,-14.832,-57.190
0.080,-0.351,-0.205,-282.227,-11.230,-56.641
0.064,-0.344,-0.095,-289.001,-4.333,-54.565
0.078,-0.339,0.057,-293.274,4.150,-50.964
0.072,-0.336,0.215,-292.969,13.123,-45.837
0.078,-0.346,0.323,-286.438,20.264,-40.466
0.085,-0.356,0.371,-273.987,26.062,-35.095
0.090,-0.370,0.389,-262.329,32.043,-30.762
0.088,-0.362,0.406,-257.629,39.551,-27.771
0.116,-0.312,0.407,-261.230,48.340,-27.039
0.156,-0.275,0.434,-271.484,55.298,-29.968
0.194,-0.288,0.573,-285.400,57.861,-35.034
0.199,-0.343,0.919,-304.932,56.274,-38.391
0.186,-0.346,1.257,-320.312,46.509,-38.513
0.193,-0.352,1.504,-306.946,20.020,-35.217
0.175,-0.439,1.671,-266.174,-9.705,-31.250
0.073,-0.550,1.777,-223.633,-25.757,-28.076
-0.210,-0.637,2.536,128.296,-100.830,29.114
-0.295,-0.710,2.641,173.523,-97.107,35.706
-0.287,-0.662,2.645,216.003,-76.538,48.767
-0.287,-0.590,2.608,263.855,-55.420,63.416
-0.320,-0.564,2.504,311.951,-44.800,75.500
-0.371,-0.511,2.381,356.201,-33.081,88.806
-0.317,-0.365,2.166,395.386,-14.526,106.506
-0.233,-0.209,1.945,425.842,6.348,120.789
-0.208,-0.127,1.766,447.510,21.423,123.474
-0.160,-0.004,1.577,469.238,30.396,127.441
-0.086,0.144,1.374,493.347,32.043,136.902
-0.029,0.323,1.210,512.817,28.748,143.066
-0.000,0.567,0.960,532.288,18.738,145.081
0.062,0.698,0.649,554.993,6.287,149.841
0.118,0.814,0.268,562.744,0.122,152.405
0.212,0.834,-0.114,552.002,0.122,147.339
0.243,0.773,-0.380,524.353,8.606,140.015
0.308,0.744,-0.563,482.178,21.851,130.371
0.374,0.771,-0.724,435.242,27.039,118.103
0.380,0.814,-0.860,391.968,27.527,106.445
0.387,0.859,-1.016,357.483,28.625,97.656
0.381,0.913,-1.247,328.003,33.936,90.210
0.297,0.922,-1.515,300.720,39.490,85.388
0.187,0.939,-1.837,271.057,43.579,81.848
0.086,0.972,-2.130,235.962,48.645,86.243
0.009,1.008,-2.399,190.674,57.678,95.032
-0.039,1.002,-2.607,142.151,66.040,100.769
-0.007,0.954,-2.706,90.393,70.068,101.624
0.102,0.844,-2.612,39.429,69.580,97.046
0.205,0.597,-2.341,-2.686,63.782,83.191
0.297,0.369,-1.980,-41.443,47.607,55.481
0.350,0.147,-1.576,-70.374,26.733,31.433
0.387,-0.140,-1.182,-86.914,10.315,11.414
0.419,-0.405,-0.785,-95.764,-2.747,-6.348
0.426,-0.636,-0.451,-97.229,-7.141,-17.883
0.422,-0.797,-0.172,-91.675,-6.287,-24.658
0.386,-0.919,-0.015,-77.332,-1.343,-28.809
0.350,-0.979,0.019,-57.373,-0.061,-29.114
0.295,-0.981,-0.057,-31.738,-2.380,-19.592
0.277,-0.959,-0.230,-5.798,-1.282,-13.611
0.267,-0.903,-0.433,11.475,-1.221,-11.597
0.238,-0.822,-0.615,19.653,-3.357,-8.545
0.234,-0.729,-0.782,20.874,-7.568,-6.165
0.237,-0.653,-0.914,17.578,-10.742,-5.615
0.249,-0.580,-1.000,10.803,-12.329,-7.751
0.288,-0.526,-1.030,2.808,-14.648,-9.705
0.342,-0.541,-0.989,-4.272,-15.381,-9.644
0.350,-0.544,-0.912,-13.733,-12.573,-11.230
0.353,-0.533,-0.835,-19.775,-9.399,-12.390
0.355,-0.561,-0.781,-19.775,-9.277,-11.353
0.360,-0.594,-0.746,-18.616,-8.728,-8.362
0.365,-0.608,-0.725,-18.738,-6.042,-6.226
0.378,-0.599,-0.739,-19.958,-4.639,-5.432
0.387,-0.590,-0.764,-21.545,-4.333,-5.005
0.376,-0.577,-0.793,-24.353,-2.991,-6.409
0.370,-0.562,-0.834,-27.771,-3.845,-9.216
0.355,-0.509,-0.883,-32.410,-7.263,-13.489
0.314,-0.505,-0.921,-38.025,-10.986,-19.226
0.303,-0.466,-0.964,-44.800,-15.747,-25.635
0.278,-0.448,-0.965,-51.025,-19.775,-27.954
0.250,-0.463,-0.920,-58.411,-20.264,-28.931
0.234,-0.484,-0.876,-64.697,-17.944,-30.212
0.221,-0.499,-0.833,-70.313,-14.404,-28.259
0.214,-0.515,-0.795,-73.059,-9.460,-24.109
0.212,-0.527,-0.781,-73.914,-5.371,-19.287
0.213,-0.526,-0.798,-73.608,-5.188,-14.099
0.200,-0.528,-0.841,-73.914,-5.493,-10.315
0.189,-0.522,-0.881,-76.233,-5.005,-7.690
0.197,-0.490,-0.920,-81.421,-4.395,-4.700
0.218,-0.485,-0.960,-87.830,-3.235,-2.319
0.221,-0.434,-1.008,-97.107,-2.808,-3.235
0.222,-0.450,-1.019,-105.652,-4.761,-6.226
0.246,-0.418,-1.023,-122.314,-4.883,-8.728
0.254,-0.371,-0.992,-138.428,-4.211,-11.841
0.251,-0.351,-0.940,-153.259,-5.676,-17.944
0.264,-0.374,-0.844,-167.236,-10.193,-24.536
0.246,-0.384,-0.780,-176.514,-14.893,-30.334
0.242,-0.370,-0.727,-183.533,-21.423,-35.156
0.234,-0.375,-0.676,-187.134,-28.259,-38.818
0.214,-0.390,-0.646,-191.345,-32.410,-41.016
0.209,-0.390,-0.614,-197.998,-31.555,-41.931
0.195,-0.385,-0.583,-207.397,-26.489,-43.274
0.187,-0.378,-0.538,-218.079,-21.057,-44.617
0.178,-0.371,-0.491,-229.004,-17.334,-44.983
0.184,-0.356,-0.456,-241.089,-14.709,-45.837
0.189,-0.337,-0.393,-255.615,-13.245,-48.645
0.165,-0.314,-0.309,-271.729,-11.658,-53.772
0.147,-0.293,-0.236,-285.767,-10.803,-58.289
0.132,-0.281,-0.138,-297.852,-10.620,-60.120
0.120,-0.272,0.015,-309.753,-9.827,-60.486
0.101,-0.250,0.191,-318.726,-8.911,-60.791
0.125,-0.231,0.346,-318.298,-8.240,-59.570
0.133,-0.249,0.511,-311.646,-4.211,-58.899
0.110,-0.288,0.693,-307.739,6.042,-59.021
0.093,-0.323,0.849,-300.598,17.456,-54.810
0.119,-0.335,0.961,-284.851,24.353,-46.204
0.153,-0.369,1.084,-271.545,27.466,-40.222
0.146,-0.450,1.219,-263.794,25.574,-36.499
0.144,-0.490,1.278,-257.019,10.254,-37.048
0.167,-0.520,1.306,-246.948,-11.963,-42.236
0.047,-0.757,2.463,119.568,-67.322,14.893
0.013,-0.768,2.607,161.011,-76.660,17.151
-0.067,-0.791,2.754,202.759,-77.332,19.592
-0.094,-0.760,2.825,245.972,-68.542,27.039
-0.115,-0.737,2.827,289.307,-52.673,35.828
-0.136,-0.699,2.715,333.923,-33.325,45.410
-0.143,-0.614,2.549,375.610,-15.320,56.824
-0.135,-0.433,2.260,414.612,-1.831,68.237
-0.079,-0.218,1.950,451.538,4.700,78.247
-0.075,-0.029,1.667,480.835,3.723,82.642
-0.133,0.205,1.357,506.836,-5.188,86.243
-0.112,0.430,1.021,535.156,-20.508,91.980
-0.075,0.633,0.687,552.429,-33.142,101.318
-0.003,0.816,0.335,554.687,-35.645,112.427
0.086,0.895,0.009,542.358,-32.837,115.906
0.166,0.790,-0.225,518.066,-23.010,111.389
0.217,0.794,-0.323,479.004,-8.667,102.234
0.283,0.884,-0.386,441.101,-1.404,96.252
0.342,0.901,-0.480,416.260,-6.042,91.492
0.311,0.934,-0.700,396.973,-9.888,88.379
0.305,1.016,-0.976,378.784,-9.094,90.881
0.207,1.065,-1.352,358.337,-0.427,98.694
0.114,1.078,-1.744,330.200,15.808,108.154
0.029,1.149,-2.125,286.499,39.124,119.690
-0.021,1.243,-2.503,233.582,63.782,134.705
0.009,1.284,-2.792,175.293,81.299,150.452
0.043,1.258,-2.914,115.112,89.783,156.067
0.128,1.128,-2.844,63.171,83.618,144.409
0.229,0.856,-2.588,21.423,63.721,117.126
0.307,0.490,-2.214,-16.602,38.147,82.275
0.343,0.203,-1.754,-53.284,18.127,49.255
0.353,-0.096,-1.277,-79.102,8.179,26.306
0.405,-0.401,-0.853,-90.454,4.822,9.644
0.479,-0.654,-0.501,-91.614,1.709,-1.648
0.521,-0.841,-0.217,-88.806,-0.610,-9.583
0.504,-0.914,-0.019,-79.956,-1.465,-16.907
0.455,-0.964,0.063,-60.425,-0.061,-22.766
0.390,-0.957,0.006,-35.583,-1.770,-25.818
0.304,-0.930,-0.181,-7.080,-6.287,-16.785
0.257,-0.882,-0.435,16.785,-6.409,-10.132
0.208,-0.801,-0.658,27.283,-4.333,-7.507
0.170,-0.727,-0.829,27.832,-2.930,-2.136
0.184,-0.618,-0.957,21.301,-2.869,2.319
0.217,-0.529,-1.045,13.245,-1.770,3.784
0.231,-0.505,-1.079,6.226,0.549,4.456
0.289,-0.508,-1.080,-1.282,-0.061,3.540
0.349,-0.494,-1.024,-13.428,-3.418,-0.427
0.361,-0.507,-0.939,-22.034,-6.531,-5.066
0.365,-0.509,-0.871,-28.442,-8.667,-8.911
0.372,-0.511,-0.808,-31.433,-11.108,-10.193
0.362,-0.536,-0.770,-30.701,-9.399,-9.949
0.350,-0.556,-0.768,-28.870,-7.324,-11.230
0.363,-0.547,-0.794,-28.748,-8.179,-10.376
0.373,-0.536,-0.824,-31.494,-6.531,-9.277
0.376,-0.526,-0.859,-35.522,-3.174,-11.047
0.373,-0.508,-0.910,-41.077,-3.967,-14.832
0.377,-0.462,-0.968,-48.645,-7.812,-19.836
0.367,-0.432,-1.014,-57.556,-10.681,-26.489
0.333,-0.383,-1.057,-66.711,-13.550,-33.020
0.289,-0.365,-1.074,-76.355,-17.212,-37.231
0.241,-0.336,-1.074,-85.938,-20.752,-39.734
0.189,-0.323,-1.073,-96.069,-21.729,-39.612
0.167,-0.298,-1.078,-104.614,-19.714,-37.048
0.146,-0.295,-1.070,-113.098,-16.174,-33.447
0.138,-0.294,-1.059,-120.728,-11.169,-28.748
0.140,-0.313,-1.042,-127.808,-7.202,-24.597
0.180,-0.332,-1.036,-135.559,-5.493,-22.461
0.203,-0.353,-1.005,-150.452,-3.601,-22.705
0.219,-0.377,-0.953,-165.771,-2.625,-24.841
0.245,-0.392,-0.891,-181.213,-4.089,-27.893
0.266,-0.395,-0.815,-195.251,-6.165,-31.860
0.274,-0.387,-0.745,-206.970,-8.789,-37.842
0.272,-0.397,-0.683,-216.125,-14.038,-45.898
0.238,-0.405,-0.619,-222.656,-21.545,-54.871
0.205,-0.403,-0.582,-228.333,-29.724,-62.927
0.182,-0.419,-0.557,-234.863,-35.583,-69.458
0.140,-0.427,-0.509,-245.056,-34.790,-73.608
0.105,-0.415,-0.442,-257.812,-29.236,-73.853
0.101,-0.407,-0.365,-269.348,-22.827,-70.007
0.109,-0.390,-0.240,-279.236,-15.015,-66.284
0.083,-0.377,-0.119,-284.485,-6.165,-65.796
0.082,-0.384,-0.038,-281.982,-0.549,-65.491
0.098,-0.405,0.039,-278.687,1.648,-63.354
0.098,-0.422,0.128,-279.846,3.540,-60.974
0.068,-0.431,0.194,-279.358,4.272,-57.129
0.061,-0.426,0.226,-278.931,3.784,-55.298
0.065,-0.426,0.251,-280.945,2.747,-55.054
0.077,-0.426,0.317,-286.682,3.235,-53.345
0.078,-0.399,0.443,-294.983,3.906,-53.589
0.064,-0.386,0.625,-298.279,4.395,-53.955
0.063,-0.372,0.816,-293.030,4.456,-53.162
0.049,-0.404,0.984,-279.724,3.784,-48.096
0.082,-0.414,1.083,-258.118,-0.366,-39.612
0.107,-0.417,1.119,-233.276,-3.784,-36.072
0.069,-0.445,1.146,-216.797,3.906,-38.452
0.054,-0.475,1.179,-210.999,18.799,-38.513
0.055,-0.511,1.224,-207.886,29.724,-35.522
0.073,-0.519,1.280,-203.674,31.799,-32.166
0.095,-0.559,1.359,-199.768,22.705,-29.541
0.089,-0.611,1.468,-192.017,6.531,-28.748
-0.350,-0.616,2.448,246.948,-72.144,54.626
-0.423,-0.718,2.536,320.618,-70.679,73.608
-0.415,-0.695,2.519,393.677,-70.679,96.313
-0.432,-0.564,2.504,459.167,-68.115,122.131
-0.447,-0.423,2.438,520.264,-61.584,153.748
-0.425,-0.244,2.227,576.538,-46.570,187.256
-0.388,-0.100,1.888,617.249,-22.888,217.957
-0.355,-0.027,1.517,639.099,8.057,241.760
-0.274,-0.015,1.207,647.278,37.415,258.301
-0.149,0.026,0.906,641.235,50.171,270.325
0.016,0.117,0.637,623.108,41.199,273.804
0.152,0.241,0.444,597.595,24.292,267.151
0.247,0.300,0.264,573.792,18.188,247.437
0.303,0.370,-0.036,545.532,17.578,224.426
0.363,0.358,-0.257,509.399,15.930,204.468
0.371,0.410,-0.357,465.088,24.536,182.190
0.403,0.492,-0.375,420.593,35.522,157.349
0.368,0.618,-0.366,383.118,42.053,134.644
0.318,0.805,-0.449,355.835,43.457,118.225
0.253,0.919,-0.656,336.060,40.710,110.596
0.190,1.056,-0.947,311.218,41.321,108.398
0.237,1.208,-1.238,277.710,47.791,114.929
0.227,1.384,-1.478,237.427,59.265,119.263
0.193,1.527,-1.701,197.876,62.073,111.694
0.137,1.644,-1.927,160.400,56.885,97.534
0.081,1.693,-2.148,122.986,47.058,81.055
0.011,1.657,-2.310,84.167,33.264,64.331
-0.003,1.467,-2.310,45.776,21.118,51.819
0.025,1.175,-2.147,3.418,14.893,46.265
0.110,0.906,-1.835,-38.025,16.296,39.124
0.230,0.517,-1.453,-65.186,21.057,34.546
0.380,0.121,-1.075,-78.491,24.536,28.625
0.505,-0.235,-0.744,-82.153,20.996,18.494
0.585,-0.549,-0.478,-76.843,13.977,5.676
0.620,-0.781,-0.294,-66.040,8.240,-5.188
0.628,-0.895,-0.204,-50.964,6.531,-13.306
0.579,-0.952,-0.239,-30.701,7.019,-20.630
0.499,-0.885,-0.357,-12.207,5.249,-26.306
0.387,-0.759,-0.514,4.456,0.793,-24.170
0.304,-0.632,-0.703,19.592,-1.038,-21.973
0.239,-0.535,-0.885,27.588,-4.028,-18.494
0.223,-0.385,-1.027,25.085,-6.531,-14.404
0.218,-0.264,-1.082,19.104,-5.310,-8.606
0.252,-0.216,-1.120,14.709,-2.197,-2.319
0.330,-0.187,-1.137,8.240,-1.465,2.625
0.391,-0.174,-1.100,-1.160,0.610,5.066
0.440,-0.200,-1.027,-8.667,2.808,5.554
0.504,-0.225,-0.946,-14.404,2.625,5.432
0.532,-0.247,-0.871,-18.005,2.441,2.930
0.525,-0.288,-0.816,-17.639,1.160,-2.441
0.503,-0.324,-0.796,-14.832,-1.465,-6.409
0.474,-0.353,-0.801,-12.329,-2.502,-8.850
0.432,-0.348,-0.806,-11.658,-2.502,-10.254
0.401,-0.342,-0.845,-11.658,-2.502,-10.010
0.396,-0.325,-0.908,-12.146,-2.258,-8.728
0.395,-0.321,-0.945,-15.869,0.305,-7.141
0.415,-0.296,-0.970,-20.752,2.014,-7.751
0.426,-0.276,-0.951,-26.611,0.549,-10.498
0.395,-0.292,-0.890,-30.029,0.122,-15.076
0.359,-0.306,-0.853,-30.090,1.038,-17.700
0.334,-0.319,-0.841,-28.809,-1.099,-16.357
0.323,-0.342,-0.841,-26.917,-2.808,-12.390
0.324,-0.349,-0.856,-25.635,-2.258,-8.850
0.332,-0.365,-0.901,-25.085,-3.235,-5.005
0.395,-0.344,-0.979,-28.015,-5.066,-1.526
0.423,-0.302,-1.024,-35.645,-4.089,-2.197
0.447,-0.262,-1.066,-44.922,-3.052,-9.033
0.467,-0.226,-1.122,-53.467,-7.263,-16.479
0.469,-0.158,-1.151,-65.735,-12.390,-27.405
0.436,-0.080,-1.144,-76.477,-15.686,-40.771
0.379,-0.050,-1.143,-82.214,-19.836,-52.673
0.328,-0.028,-1.158,-87.097,-25.940,-60.974
0.262,-0.025,-1.150,-94.910,-29.846,-65.735
0.211,-0.019,-1.136,-105.225,-27.527,-65.857
0.189,-0.026,-1.122,-116.272,-22.339,-61.096
0.200,-0.053,-1.118,-127.441,-16.296,-53.772
0.228,-0.083,-1.104,-140.869,-11.230,-47.485
0.257,-0.109,-1.085,-156.250,-6.775,-43.213
0.302,-0.130,-1.078,-172.852,-4.456,-41.565
0.347,-0.146,-1.070,-191.040,-3.235,-44.189
0.357,-0.178,-1.032,-207.642,-2.747,-49.561
0.356,-0.174,-0.984,-227.173,-5.737,-57.922
0.335,-0.176,-0.894,-243.347,-10.071,-68.665
0.309,-0.168,-0.821,-254.517,-14.648,-78.735
0.256,-0.176,-0.716,-263.367,-21.606,-87.158
0.226,-0.185,-0.681,-267.395,-27.161,-94.177
0.200,-0.244,-0.650,-272.888,-29.114,-100.342
0.182,-0.287,-0.611,-284.729,-24.658,-103.210
0.181,-0.298,-0.561,-303.406,-17.151,-103.638
0.181,-0.297,-0.482,-324.829,-7.690,-102.600
0.178,-0.287,-0.365,-345.093,2.136,-101.135
0.169,-0.276,-0.245,-360.168,8.667,-99.915
0.163,-0.259,-0.147,-368.958,9.094,-98.145
0.182,-0.258,-0.048,-374.390,5.249,-97.168
0.174,-0.255,0.072,-381.165,-1.587,-98.938
0.149,-0.257,0.191,-387.207,-12.024,-102.234
0.123,-0.252,0.356,-392.334,-22.217,-107.117
0.052,-0.237,0.523,-393.372,-26.733,-109.863
0.027,-0.244,0.697,-385.803,-29.114,-108.948
0.015,-0.256,0.832,-368.347,-30.579,-105.530
-0.377,-0.333,2.532,99.060,-81.543,39.246
-0.470,-0.330,2.694,150.513,-89.905,52.795
-0.513,-0.314,2.756,212.769,-89.478,64.514
-0.554,-0.297,2.823,284.546,-74.097,78.430
-0.604,-0.315,2.869,362.976,-51.941,97.290
-0.608,-0.260,2.887,450.745,-37.659,121.338
-0.571,-0.073,2.802,552.063,-38.086,152.161
-0.500,0.308,2.619,653.564,-52.368,192.078
-0.420,0.676,2.370,745.300,-72.327,231.323
-0.364,0.927,1.980,816.467,-80.322,268.372
-0.275,1.098,1.449,852.844,-74.219,300.537
-0.240,1.136,0.846,853.699,-52.429,324.585
-0.127,1.000,0.254,818.359,-23.804,338.867
0.064,0.933,-0.083,753.235,-23.132,343.323
0.277,0.965,-0.252,681.335,-36.926,332.458
0.350,1.017,-0.377,615.173,-32.837,303.833
0.467,1.051,-0.652,559.814,-22.583,265.930
0.521,1.002,-0.857,506.042,-18.860,231.995
0.549,0.977,-0.971,448.914,-11.475,199.158
0.514,1.049,-1.032,388.611,-2.747,166.321
0.484,1.100,-1.098,338.379,4.456,142.822
0.405,1.130,-1.166,296.082,10.254,130.737
0.339,1.182,-1.253,257.629,14.465,126.343
0.243,1.249,-1.391,225.403,17.334,128.967
0.226,1.301,-1.550,193.176,17.273,133.728
0.311,1.333,-1.666,160.156,16.846,136.841
0.382,1.261,-1.730,127.808,20.020,128.357
0.416,1.142,-1.785,94.727,15.320,109.985
0.450,1.010,-1.785,62.073,3.235,86.487
0.460,0.760,-1.727,30.273,-1.709,64.270
0.449,0.512,-1.578,-4.211,4.700,45.715
0.463,0.316,-1.356,-35.400,13.428,32.715
0.494,0.137,-1.136,-54.199,17.334,22.705
0.518,-0.089,-0.951,-59.021,16.785,12.573
0.506,-0.222,-0.787,-58.105,13.000,-0.977
0.469,-0.325,-0.667,-50.659,10.559,-16.052
0.414,-0.423,-0.613,-37.720,8.911,-27.832
0.343,-0.450,-0.624,-25.269,2.197,-28.564
0.295,-0.455,-0.681,-14.282,-0.671,-22.766
0.297,-0.474,-0.762,-5.859,0.854,-13.245
0.330,-0.457,-0.827,-2.686,3.174,-1.892
0.381,-0.401,-0.896,-3.906,5.005,6.470
0.447,-0.361,-0.944,-7.019,5.859,10.498
0.499,-0.300,-0.947,-11.475,7.385,10.376
0.531,-0.241,-0.926,-14.709,5.737,5.249
0.554,-0.203,-0.910,-16.296,2.930,-1.831
0.559,-0.187,-0.897,-16.541,0.244,-7.690
0.529,-0.185,-0.893,-16.846,-2.563,-11.841
0.501,-0.187,-0.882,-17.944,-4.211,-12.878
0.457,-0.208,-0.851,-18.494,-3.052,-11.108
0.442,-0.240,-0.863,-17.761,-1.160,-7.324
0.450,-0.229,-0.881,-19.348,1.160,-2.869
0.453,-0.246,-0.891,-21.729,4.578,1.709
0.472,-0.267,-0.903,-24.597,7.080,3.601
0.486,-0.254,-0.892,-28.503,7.874,2.930
0.512,-0.262,-0.880,-30.884,7.324,-0.244
0.533,-0.285,-0.852,-32.104,7.751,-5.920
0.510,-0.299,-0.845,-32.593,7.935,-12.207
0.485,-0.295,-0.850,-32.349,5.127,-17.029
0.443,-0.290,-0.865,-32.104,1.526,-19.958
0.393,-0.278,-0.857,-33.447,0.916,-20.508
0.349,-0.276,-0.865,-34.180,1.648,-18.372
0.339,-0.255,-0.936,-34.241,-0.061,-13.062
0.347,-0.241,-1.002,-37.964,-0.977,-8.667
0.355,-0.205,-1.048,-45.715,2.136,-5.981
0.379,-0.170,-1.065,-53.406,3.906,-4.944
0.396,-0.137,-1.018,-61.096,2.380,-7.324
0.400,-0.146,-0.994,-64.331,0.977,-12.878
0.403,-0.144,-1.002,-67.261,-3.113,-19.348
0.395,-0.140,-1.017,-72.205,-7.935,-24.780
0.370,-0.131,-1.020,-78.430,-10.498,-29.907
0.362,-0.130,-1.048,-86.243,-11.780,-34.668
0.364,-0.120,-1.067,-96.130,-12.268,-36.316
0.366,-0.121,-1.085,-109.192,-10.681,-36.316
0.390,-0.080,-1.127,-124.207,-9.583,-38.879
0.402,-0.069,-1.156,-140.808,-10.254,-43.823
0.394,-0.076,-1.150,-157.288,-9.705,-49.744
0.390,-0.061,-1.108,-173.401,-9.644,-57.739
0.378,-0.064,-1.033,-187.195,-11.047,-66.711
0.342,-0.062,-0.937,-199.097,-13.977,-75.745
0.325,-0.085,-0.852,-206.848,-16.663,-83.679
0.310,-0.132,-0.796,-211.548,-17.944,-88.867
0.306,-0.163,-0.787,-217.773,-18.127,-90.454
0.296,-0.200,-0.775,-227.295,-17.090,-91.003
0.266,-0.224,-0.738,-240.417,-13.123,-90.637
0.263,-0.232,-0.714,-255.310,-8.545,-89.294
0.278,-0.249,-0.681,-271.301,-2.502,-89.172
0.268,-0.263,-0.621,-288.208,3.906,-90.454
0.252,-0.258,-0.564,-305.664,6.287,-92.102
0.240,-0.238,-0.473,-321.838,5.493,-94.238
0.214,-0.219,-0.356,-332.153,1.709,-97.351
0.188,-0.203,-0.267,-335.937,-5.676,-102.234
0.156,-0.185,-0.198,-337.280,-16.113,-108.948
0.138,-0.216,-0.076,-339.600,-26.367,-116.577
0.117,-0.261,0.107,-345.764,-30.029,-122.314
0.101,-0.323,0.322,-352.478,-25.513,-126.038
0.075,-0.330,0.502,-353.333,-17.883,-124.878
0.080,-0.356,0.610,-346.252,-10.376,-118.469
0.110,-0.404,0.651,-336.731,0.366,-109.680
0.091,-0.456,0.682,-330.017,14.587,-105.164
-0.000,0.522,-2.643,222.351,131.165,142.334
0.086,0.500,-2.626,167.297,138.245,143.799
0.167,0.373,-2.510,119.568,114.807,130.127
0.285,0.224,-2.338,74.402,71.228,100.525
0.392,0.019,-2.071,30.334,26.733,61.768
0.362,-0.168,-1.686,-12.085,-4.333,20.508
0.326,-0.416,-1.223,-47.546,-22.095,-7.996
0.256,-0.594,-0.732,-70.313,-27.649,-22.034
0.188,-0.710,-0.370,-77.454,-22.644,-25.269
0.183,-0.838,-0.140,-66.406,-16.846,-21.118
0.187,-0.968,-0.033,-46.143,-9.155,-13.123
0.214,-1.032,-0.020,-28.442,0.977,-4.639
0.226,-1.043,-0.095,-10.498,10.864,2.319
0.235,-1.006,-0.221,6.165,15.320,4.211
0.223,-0.954,-0.384,19.043,13.062,2.869
0.192,-0.876,-0.556,26.978,6.714,1.526
0.181,-0.797,-0.737,30.090,-1.526,0.977
0.194,-0.749,-0.889,26.550,-6.958,0.061
0.203,-0.727,-0.954,16.357,-8.179,-2.014
0.198,-0.698,-0.948,3.296,-7.263,-2.991
0.223,-0.681,-0.907,-8.057,-7.629,-2.991
0.250,-0.684,-0.837,-16.113,-9.399,-2.869
0.252,-0.699,-0.739,-21.606,-10.559,-3.540
0.249,-0.703,-0.659,-23.010,-9.216,-3.967
0.260,-0.719,-0.613,-19.958,-7.141,-3.235
0.273,-0.740,-0.592,-16.357,-6.348,-2.197
0.271,-0.764,-0.582,-15.015,-4.944,-2.991
0.288,-0.776,-0.560,-15.015,-2.991,-2.686
0.312,-0.789,-0.525,-15.564,-1.831,-1.709
0.305,-0.776,-0.501,-15.198,-1.038,-3.235
0.284,-0.783,-0.513,-11.841,-0.732,-5.676
0.249,-0.790,-0.548,-7.935,-1.160,-5.920
0.228,-0.783,-0.585,-6.775,-0.916,-4.028
0.212,-0.791,-0.606,-8.606,1.587,-1.343
0.182,-0.757,-0.610,-11.902,6.775,-0.244
0.171,-0.771,-0.620,-12.390,10.925,2.319
0.182,-0.771,-0.633,-11.658,10.559,5.798
0.191,-0.769,-0.638,-12.329,7.568,6.653
0.202,-0.775,-0.629,-12.146,2.808,6.104
0.198,-0.733,-0.615,-11.414,-2.319,4.089
0.196,-0.773,-0.624,-8.240,-6.409,1.221
0.227,-0.807,-0.611,-6.531,-9.277,1.282
0.226,-0.807,-0.557,-9.033,-9.521,1.831
0.214,-0.804,-0.537,-8.728,-8.362,0.916
0.193,-0.801,-0.545,-5.676,-7.080,0.977
0.181,-0.802,-0.565,-2.319,-4.578,3.174
0.179,-0.800,-0.595,-1.160,-0.244,6.836
0.198,-0.790,-0.633,-2.563,3.662,10.437
0.208,-0.787,-0.657,-5.798,7.629,11.902
0.242,-0.749,-0.669,-10.071,11.719,11.841
0.264,-0.726,-0.683,-13.123,11.475,10.559
0.286,-0.736,-0.717,-14.465,6.287,5.249
0.283,-0.693,-0.748,-17.578,0.122,-0.977
0.279,-0.691,-0.771,-20.020,-4.150,-3.174
0.271,-0.677,-0.797,-24.902,-6.653,-6.104
0.250,-0.685,-0.788,-29.724,-9.338,-9.216
0.233,-0.684,-0.777,-35.095,-11.841,-12.390
0.225,-0.684,-0.747,-40.283,-12.939,-13.611
0.210,-0.681,-0.738,-44.434,-10.559,-13.123
0.223,-0.678,-0.751,-47.974,-7.080,-11.719
0.215,-0.672,-0.764,-52.673,-2.258,-10.010
0.213,-0.668,-0.784,-57.922,3.967,-8.789
0.212,-0.640,-0.819,-64.697,8.484,-8.118
0.193,-0.638,-0.861,-70.557,10.071,-7.996
0.190,-0.599,-0.910,-78.430,8.179,-8.850
0.173,-0.584,-0.948,-87.646,7.019,-9.216
0.169,-0.566,-0.964,-97.900,7.385,-9.888
0.160,-0.554,-0.969,-110.413,4.639,-12.268
0.163,-0.514,-0.971,-122.131,0.610,-14.038
0.156,-0.501,-0.965,-133.484,-1.038,-15.076
0.162,-0.500,-0.934,-145.142,-0.610,-16.663
0.159,-0.480,-0.906,-157.776,0.000,-19.592
0.162,-0.473,-0.882,-169.678,0.183,-21.606
0.156,-0.465,-0.845,-182.312,1.282,-23.376
0.153,-0.447,-0.782,-194.885,3.174,-24.475
0.147,-0.448,-0.691,-205.017,5.127,-23.987
0.136,-0.435,-0.606,-213.989,6.470,-22.888
0.143,-0.425,-0.547,-220.215,6.226,-21.301
0.143,-0.432,-0.483,-224.609,6.531,-20.020
0.127,-0.423,-0.414,-229.492,8.118,-18.799
0.108,-0.428,-0.346,-234.131,9.094,-17.029
0.106,-0.400,-0.284,-237.183,8.850,-15.015
0.087,-0.383,-0.202,-237.610,7.385,-10.986
0.074,-0.380,-0.095,-238.342,5.859,-7.446
0.076,-0.347,0.018,-241.211,4.761,-6.104
0.095,-0.316,0.066,-242.249,4.150,-5.859
0.123,-0.277,0.135,-242.981,6.836,-6.409
0.143,-0.325,0.232,-244.080,15.381,-7.996
0.159,-0.339,0.385,-252.625,24.780,-11.292
0.160,-0.330,0.542,-262.756,30.273,-10.498
0.167,-0.334,0.669,-262.268,28.381,-7.690
0.165,-0.363,0.767,-252.502,22.034,-5.981
0.189,-0.398,0.885,-241.516,11.658,-4.761
0.194,-0.407,1.013,-233.154,-1.099,-4.517
0.235,-0.419,1.144,-222.168,-15.991,-6.714
0.181,-0.470,1.308,-213.501,-27.588,-11.353
0.152,-0.529,1.453,-201.721,-31.189,-13.428
0.192,-0.566,1.515,-182.495,-32.776,-10.498
0.182,-0.622,1.539,-165.649,-25.818,-9.155
0.206,-0.676,1.531,-151.794,-8.911,-8.545
0.072,-0.884,2.500,73.242,-80.811,-18.860
0.003,-0.904,2.543,115.051,-93.201,-14.709
-0.043,-0.854,2.483,158.508,-94.666,-6.470
-0.118,-0.891,2.428,198.547,-81.421,4.211
-0.162,-0.917,2.367,225.708,-60.364,10.376
-0.199,-0.863,2.349,251.587,-45.532,19.775
-0.187,-0.693,2.311,286.865,-41.138,34.668
-0.186,-0.524,2.243,333.679,-43.335,49.561
-0.200,-0.320,2.122,383.179,-45.471,63.843
-0.203,-0.078,1.906,432.983,-45.593,79.346
-0.216,0.140,1.559,477.661,-40.283,94.116
-0.139,0.375,1.101,504.578,-25.940,107.971
-0.058,0.554,0.732,514.404,-6.226,119.690
0.059,0.647,0.394,511.169,13.306,122.986
0.177,0.704,0.088,498.535,21.729,115.356
0.309,0.719,-0.101,477.173,13.428,100.830
0.357,0.759,-0.262,453.674,-4.700,85.449
0.384,0.800,-0.430,433.655,-21.790,70.435
0.365,0.866,-0.640,418.091,-30.151,63.599
0.303,0.862,-0.870,403.870,-27.222,65.002
0.185,0.940,-1.198,385.986,-15.503,73.120
0.065,1.074,-1.596,367.126,-0.122,90.454
-0.122,1.212,-2.060,339.905,26.794,117.432
-0.201,1.367,-2.594,305.542,67.078,152.222
-0.184,1.439,-3.104,261.108,102.417,186.279
0.019,1.326,-3.295,201.050,127.869,203.308
0.157,1.107,-3.188,133.789,127.441,195.190
0.398,0.842,-2.939,63.049,80.566,157.288
0.570,0.581,-2.498,2.563,30.579,102.844
0.573,0.226,-1.943,-43.335,1.404,50.049
0.570,-0.180,-1.345,-79.285,-9.094,7.935
0.543,-0.504,-0.730,-104.248,-12.695,-14.099
0.518,-0.758,-0.162,-112.854,-5.981,-23.804
0.490,-0.936,0.207,-101.501,3.418,-26.611
0.443,-1.047,0.337,-73.975,8.118,-25.818
0.368,-1.143,0.247,-37.476,10.620,-20.386
0.307,-1.133,0.024,-7.019,13.306,-11.230
0.245,-0.991,-0.238,12.329,13.855,-4.517
0.196,-0.885,-0.490,27.405,11.169,1.770
0.155,-0.755,-0.734,36.804,9.277,2.563
0.141,-0.630,-0.951,37.170,5.310,0.549
0.138,-0.567,-1.100,32.227,0.732,-1.526
0.164,-0.500,-1.170,20.935,-6.287,-6.104
0.189,-0.464,-1.147,7.751,-12.024,-11.047
0.222,-0.490,-1.085,-1.770,-15.991,-14.771
0.240,-0.539,-0.991,-11.475,-18.005,-18.188
0.249,-0.578,-0.878,-21.667,-15.015,-17.578
0.285,-0.615,-0.756,-28.564,-9.827,-13.184
0.314,-0.653,-0.653,-30.762,-3.845,-8.484
0.343,-0.692,-0.587,-27.832,1.465,-5.127
0.388,-0.727,-0.550,-22.339,2.930,-2.075
0.431,-0.742,-0.518,-16.113,1.709,-1.221
0.425,-0.739,-0.521,-9.644,-1.160,-5.005
0.388,-0.722,-0.567,-3.174,-6.836,-9.583
0.359,-0.688,-0.640,2.197,-12.390,-11.780
0.321,-0.661,-0.722,4.150,-13.245,-13.794
0.280,-0.638,-0.794,1.587,-10.315,-15.076
0.244,-0.616,-0.836,-4.456,-6.042,-14.160
0.213,-0.613,-0.867,-12.756,-0.549,-12.024
0.215,-0.600,-0.842,-20.691,3.052,-8.179
0.223,-0.587,-0.797,-27.466,7.446,-4.944
0.252,-0.597,-0.740,-29.541,10.864,-3.357
0.270,-0.607,-0.704,-27.344,10.437,-3.540
0.287,-0.635,-0.693,-22.156,5.676,-5.310
0.285,-0.664,-0.700,-17.456,-1.221,-6.592
0.284,-0.671,-0.703,-15.320,-6.165,-7.446
0.282,-0.666,-0.723,-15.076,-8.911,-8.667
0.280,-0.668,-0.771,-16.602,-10.376,-10.864
0.272,-0.658,-0.809,-21.851,-8.240,-13.000
0.265,-0.628,-0.831,-29.419,-4.028,-14.221
0.250,-0.600,-0.861,-36.072,-1.587,-15.137
0.247,-0.571,-0.892,-41.138,-3.540,-16.235
0.249,-0.532,-0.903,-46.753,-7.568,-18.677
0.207,-0.502,-0.903,-51.331,-10.254,-22.461
0.176,-0.486,-0.917,-52.795,-11.902,-25.513
0.159,-0.497,-0.954,-53.894,-14.465,-25.208
0.152,-0.450,-1.001,-59.387,-15.137,-24.597
0.131,-0.487,-0.999,-65.186,-11.536,-23.193
0.141,-0.501,-0.994,-74.219,-8.972,-21.240
0.158,-0.475,-0.974,-85.815,-7.874,-19.836
0.161,-0.475,-0.960,-94.482,-6.409,-19.348
0.186,-0.480,-0.966,-102.661,-6.836,-20.508
0.201,-0.473,-0.973,-112.427,-8.911,-23.682
0.196,-0.460,-0.974,-122.925,-11.414,-28.992
0.189,-0.454,-0.971,-133.667,-15.198,-33.997
0.180,-0.449,-0.946,-145.569,-17.761,-38.147
0.160,-0.439,-0.905,-158.569,-17.456,-41.260
0.148,-0.432,-0.855,-170.105,-17.822,-42.236
0.154,-0.424,-0.805,-179.871,-19.592,-42.114
0.133,-0.423,-0.744,-190.002,-20.447,-43.335
0.124,-0.423,-0.681,-198.792,-19.043,-44.312
0.130,-0.432,-0.595,-206.482,-16.663,-43.762
0.122,-0.429,-0.492,-213.806,-12.207,-43.030
0.127,-0.440,-0.424,-217.041,-8.362,-41.321
0.163,-0.464,-0.390,-218.079,-5.371,-38.818
0.167,-0.478,-0.345,-222.961,-0.244,-39.307
0.172,-0.489,-0.303,-230.591,3.479,-40.833
0.164,-0.479,-0.268,-240.601,3.845,-42.053
0.145,-0.455,-0.200,-251.038,2.258,-44.678
0.114,-0.431,-0.108,-260.620,-0.671,-48.096
-0.139,-0.720,2.344,133.057,-79.163,15.930
-0.187,-0.734,2.380,160.400,-80.750,19.836
-0.226,-0.733,2.407,187.378,-74.890,24.841
-0.272,-0.744,2.509,211.182,-65.125,33.325
-0.238,-0.597,2.558,239.014,-61.401,45.410
-0.187,-0.451,2.617,266.968,-67.871,53.711
-0.235,-0.391,2.633,299.500,-72.998,56.885
-0.254,-0.270,2.464,342.468,-71.594,60.608
-0.220,-0.052,2.143,386.597,-60.669,70.313
-0.188,0.161,1.810,425.781,-42.725,85.144
-0.159,0.410,1.446,459.595,-24.231,98.633
-0.115,0.632,1.023,492.615,-13.184,110.413
-0.066,0.836,0.605,519.165,-11.047,121.521
0.027,1.019,0.216,532.837,-16.663,128.479
0.154,1.140,-0.168,532.959,-32.104,128.540
0.274,1.185,-0.516,521.179,-48.767,121.765
0.338,1.145,-0.805,500.244,-55.969,112.244
0.323,1.198,-1.086,477.600,-47.974,107.056
0.273,1.307,-1.426,459.351,-26.794,112.366
0.047,1.428,-1.894,441.284,10.803,126.526
-0.228,1.528,-2.485,421.570,71.960,154.053
-0.373,1.614,-2.985,390.625,128.784,200.562
-0.324,1.634,-3.313,342.712,155.457,244.690
-0.097,1.510,-3.462,279.236,135.315,258.911
0.241,1.191,-3.387,206.238,90.027,235.718
0.646,0.727,-3.195,124.146,41.382,177.612
0.748,0.329,-2.599,31.555,4.333,99.243
0.668,-0.013,-1.734,-47.180,-14.648,35.095
0.630,-0.239,-0.934,-89.722,-28.015,-4.761
0.645,-0.499,-0.375,-88.196,-36.987,-25.085
0.573,-0.842,-0.067,-65.857,-29.480,-38.513
0.500,-1.056,0.079,-45.715,-15.991,-33.569
0.388,-1.135,0.105,-27.649,3.052,-16.541
0.318,-1.066,0.004,-10.803,24.048,-2.197
0.267,-0.970,-0.227,7.935,37.048,9.705
0.204,-0.859,-0.524,24.597,39.673,17.273
0.154,-0.714,-0.792,31.738,35.278,16.174
0.145,-0.593,-0.992,31.799,25.879,10.681
0.100,-0.498,-1.140,26.917,15.259,1.770
0.084,-0.453,-1.244,19.348,1.038,-7.812
0.105,-0.413,-1.266,7.507,-11.780,-15.686
0.111,-0.459,-1.168,-5.981,-16.846,-18.921
0.119,-0.506,-1.014,-19.226,-15.686,-19.958
0.142,-0.548,-0.859,-28.015,-12.024,-15.442
0.197,-0.609,-0.748,-29.846,-4.456,-6.775
0.255,-0.692,-0.637,-28.992,3.967,1.587
0.335,-0.733,-0.545,-27.161,11.353,7.751
0.399,-0.759,-0.512,-21.729,12.756,9.583
0.435,-0.765,-0.526,-15.137,9.338,6.348
0.426,-0.739,-0.589,-10.376,4.761,-1.160
0.387,-0.709,-0.667,-7.690,0.793,-7.385
0.323,-0.658,-0.745,-7.568,-1.465,-11.353
0.285,-0.593,-0.815,-9.399,-1.526,-13.000
0.248,-0.563,-0.856,-11.597,0.122,-13.062
0.215,-0.548,-0.875,-13.611,2.808,-11.353
0.219,-0.539,-0.870,-16.418,5.615,-7.324
0.226,-0.539,-0.841,-19.165,8.850,-3.235
0.237,-0.561,-0.821,-20.508,10.437,-0.610
0.275,-0.566,-0.806,-21.179,7.874,-0.732
0.291,-0.582,-0.803,-21.484,2.808,-2.869
0.290,-0.599,-0.827,-22.888,-2.686,-6.714
0.293,-0.594,-0.869,-27.649,-7.263,-12.268
0.288,-0.595,-0.900,-34.790,-8.423,-16.724
0.288,-0.564,-0.944,-44.922,-7.996,-21.484
0.284,-0.558,-0.972,-55.115,-8.484,-26.428
0.256,-0.542,-0.983,-66.589,-10.864,-32.593
0.225,-0.489,-0.989,-76.965,-14.282,-37.598
0.177,-0.472,-0.973,-84.106,-17.151,-40.222
0.112,-0.444,-0.971,-87.708,-15.930,-40.771
0.071,-0.432,-0.995,-89.050,-12.451,-38.208
0.048,-0.406,-1.032,-89.905,-8.667,-32.715
0.036,-0.438,-1.056,-93.567,-2.747,-26.123
0.053,-0.430,-1.066,-102.783,2.991,-21.301
0.082,-0.423,-1.068,-114.075,5.859,-19.165
0.104,-0.435,-1.067,-126.709,6.409,-20.264
0.132,-0.436,-1.048,-141.602,4.150,-23.376
0.153,-0.424,-0.995,-157.043,0.366,-27.893
0.160,-0.415,-0.930,-170.166,-4.517,-34.546
0.141,-0.412,-0.869,-180.054,-11.719,-42.908
0.112,-0.426,-0.817,-186.951,-20.752,-50.049
0.074,-0.415,-0.759,-192.749,-28.564,-53.894
0.041,-0.408,-0.714,-198.669,-32.532,-54.993
0.003,-0.408,-0.657,-201.965,-29.846,-53.101
-0.043,-0.440,-0.568,-205.627,-20.569,-46.814
-0.021,-0.439,-0.505,-208.740,-9.583,-37.598
0.000,-0.438,-0.448,-212.280,-0.122,-28.198
0.021,-0.455,-0.380,-216.553,10.437,-20.813
0.059,-0.464,-0.304,-219.666,16.968,-14.465
0.113,-0.462,-0.248,-221.741,17.212,-10.925
0.133,-0.471,-0.217,-222.961,11.963,-13.611
0.128,-0.480,-0.205,-226.990,4.333,-20.508
0.120,-0.486,-0.136,-235.291,-2.808,-26.489
0.060,-0.470,0.016,-245.605,-6.775,-30.823
0.026,-0.426,0.112,-247.742,-7.629,-32.104
0.051,-0.434,0.166,-242.859,-7.263,-30.090
0.074,-0.450,0.283,-246.643,0.854,-27.893
0.109,-0.446,0.440,-258.423,12.390,-25.757
0.162,-0.437,0.584,-264.771,20.325,-24.170
0.173,-0.485,0.760,-265.442,25.208,-27.039
0.137,-0.533,0.935,-263.733,29.236,-30.945
-0.042,-0.912,2.332,107.971,-77.454,-2.258
-0.119,-0.898,2.332,143.799,-79.224,1.831
-0.159,-0.913,2.193,188.721,-67.505,12.390
-0.162,-0.925,2.067,228.699,-47.485,24.780
-0.219,-0.945,2.096,249.451,-30.090,33.081
-0.256,-0.809,2.163,267.090,-22.156,41.199
-0.206,-0.644,2.104,303.528,-20.386,54.565
-0.195,-0.546,2.027,343.994,-14.893,67.017
-0.224,-0.443,2.005,374.634,-7.080,78.552
-0.172,-0.187,1.838,405.029,0.732,96.313
-0.118,-0.005,1.590,440.063,7.690,110.779
-0.102,0.171,1.283,466.492,17.395,117.249
-0.024,0.314,0.925,483.521,21.362,123.230
0.086,0.513,0.546,487.183,21.667,127.563
0.317,0.605,0.318,477.112,20.203,121.948
0.408,0.647,0.254,459.839,15.381,103.638
0.426,0.755,0.033,449.402,-0.732,77.576
0.471,0.859,-0.330,449.951,-27.222,59.448
0.472,0.882,-0.721,442.871,-33.875,50.903
0.397,0.978,-1.144,420.532,-22.095,46.875
0.194,1.099,-1.573,390.503,-6.836,50.354
0.023,1.310,-2.098,357.117,10.620,63.599
-0.170,1.536,-2.694,318.420,31.494,82.764
-0.421,1.656,-3.279,270.874,57.312,107.239
-0.435,1.628,-3.599,217.468,71.472,134.277
-0.343,1.461,-3.558,155.396,65.735,155.640
-0.077,1.232,-3.267,89.844,45.410,156.799
0.286,0.808,-2.900,31.067,15.991,127.563
0.452,0.365,-2.238,-31.006,-1.892,81.787
0.518,0.004,-1.540,-84.290,-8.301,43.823
0.703,-0.362,-0.843,-111.389,-22.705,15.747
0.764,-0.741,-0.184,-118.835,-33.203,-6.958
0.699,-0.935,0.255,-112.671,-32.532,-24.841
0.585,-1.039,0.416,-86.548,-32.959,-33.997
0.484,-1.143,0.324,-47.424,-29.968,-30.396
0.401,-1.189,0.084,-15.747,-16.541,-17.944
0.356,-1.118,-0.148,-0.732,0.244,-4.944
0.339,-0.992,-0.320,3.052,11.841,4.028
0.277,-0.879,-0.501,9.766,17.151,9.583
0.249,-0.751,-0.694,15.930,12.207,6.653
0.213,-0.673,-0.872,19.775,2.197,3.357
0.195,-0.590,-1.003,18.188,-7.202,-2.380
0.211,-0.521,-1.057,11.108,-14.954,-8.728
0.225,-0.534,-1.023,5.249,-18.860,-11.230
0.246,-0.552,-0.956,-2.686,-19.226,-13.367
0.280,-0.587,-0.875,-10.193,-17.395,-13.977
0.306,-0.642,-0.796,-15.320,-14.893,-10.620
0.356,-0.663,-0.723,-20.264,-10.193,-5.493
0.420,-0.691,-0.656,-23.254,-2.319,-1.099
0.453,-0.720,-0.614,-23.804,4.822,0.732
0.474,-0.717,-0.594,-22.949,5.859,0.916
0.503,-0.701,-0.608,-20.874,2.991,-1.404
0.519,-0.680,-0.648,-19.104,-2.686,-7.507
0.483,-0.668,-0.708,-19.592,-10.132,-18.066
0.433,-0.629,-0.765,-22.644,-17.700,-26.611
0.380,-0.595,-0.810,-27.100,-22.766,-31.372
0.320,-0.581,-0.809,-33.325,-21.912,-33.020
0.256,-0.544,-0.796,-39.612,-15.259,-30.273
0.204,-0.544,-0.782,-42.358,-5.981,-24.902
0.160,-0.503,-0.798,-42.908,1.831,-17.090
0.153,-0.546,-0.850,-40.833,8.728,-6.836
0.218,-0.505,-0.905,-44.495,12.756,0.000
0.247,-0.506,-0.938,-50.476,15.991,4.944
0.277,-0.532,-0.948,-58.899,18.005,3.967
0.308,-0.525,-0.942,-69.092,14.465,-1.831
0.332,-0.514,-0.939,-78.552,7.019,-8.057
0.333,-0.519,-0.942,-87.280,-0.916,-16.602
0.321,-0.512,-0.942,-96.436,-8.911,-26.184
0.293,-0.498,-0.930,-106.506,-15.991,-34.241
0.266,-0.483,-0.925,-116.150,-19.470,-39.246
0.241,-0.469,-0.902,-125.305,-18.982,-41.199
0.195,-0.482,-0.873,-133.850,-14.038,-41.260
0.179,-0.461,-0.858,-141.968,-7.935,-37.842
0.170,-0.441,-0.834,-149.841,-0.854,-33.325
0.162,-0.427,-0.825,-155.212,6.165,-29.175
0.145,-0.443,-0.802,-159.851,9.155,-25.208
0.171,-0.441,-0.787,-166.992,8.423,-23.315
0.187,-0.423,-0.750,-176.208,7.263,-23.621
0.181,-0.423,-0.702,-185.852,6.470,-26.978
0.176,-0.432,-0.650,-193.604,2.502,-30.579
0.178,-0.428,-0.595,-200.378,-3.418,-32.837
0.167,-0.420,-0.546,-207.947,-8.118,-35.583
0.142,-0.414,-0.485,-215.332,-12.024,-38.513
0.108,-0.429,-0.368,-222.534,-15.320,-40.466
0.043,-0.425,-0.230,-228.516,-14.038,-39.856
0.018,-0.437,-0.119,-227.356,-9.583,-33.936
0.013,-0.420,-0.058,-220.947,-4.517,-23.437
0.044,-0.428,-0.041,-216.736,3.967,-14.954
0.078,-0.440,-0.014,-219.299,18.188,-11.169
0.077,-0.444,0.053,-228.210,34.424,-10.864
0.075,-0.460,0.168,-238.953,48.462,-10.010
0.093,-0.471,0.283,-244.202,52.979,-5.493
0.121,-0.469,0.355,-242.798,44.678,-0.427
0.132,-0.466,0.397,-238.220,28.381,1.465
0.186,-0.431,0.404,-233.398,10.010,0.610
0.274,-0.430,0.542,-233.826,-4.822,-4.150
0.233,-0.479,0.810,-243.713,-7.690,-15.442
0.239,-0.512,1.056,-244.873,-12.207,-20.508
0.261,-0.554,1.263,-231.018,-22.583,-17.334
0.233,-0.628,1.470,-212.341,-22.705,-15.015
0.011,-0.976,2.097,154.114,-77.942,-5.798
-0.030,-0.953,2.062,189.636,-78.674,-0.671
-0.106,-0.936,2.005,221.436,-72.693,6.592
-0.161,-0.869,1.885,250.366,-61.768,16.357
-0.171,-0.770,1.733,280.701,-46.265,28.259
-0.144,-0.700,1.659,305.298,-29.663,37.415
-0.098,-0.631,1.587,326.660,-24.109,39.429
-0.037,-0.498,1.433,348.938,-34.363,39.490
0.000,-0.436,1.305,367.493,-53.650,38.330
0.007,-0.334,1.174,378.479,-76.599,34.790
-0.001,-0.197,1.027,390.381,-94.177,34.912
0.013,-0.077,0.827,400.330,-96.497,38.452
0.027,0.002,0.626,405.457,-83.374,47.546
0.078,0.110,0.452,402.893,-59.265,62.683
0.166,0.236,0.258,398.682,-37.598,78.552
0.283,0.337,0.091,392.639,-21.790,85.876
0.346,0.426,-0.123,386.353,-12.390,85.754
0.459,0.492,-0.414,382.080,-17.151,83.069
0.506,0.558,-0.731,372.192,-24.353,81.970
0.529,0.627,-0.998,351.807,-21.545,82.397
0.468,0.728,-1.256,326.538,-7.568,83.496
0.394,0.833,-1.543,302.307,11.658,85.938
0.276,0.950,-1.869,277.649,31.555,93.445
0.124,1.016,-2.277,250.488,55.664,105.469
0.023,1.044,-2.684,213.623,82.886,119.080
0.073,0.998,-2.928,160.583,108.643,139.099
0.213,0.836,-2.854,99.182,131.104,150.452
0.335,0.670,-2.537,35.767,128.601,132.019
0.400,0.450,-2.104,-10.620,92.224,91.125
0.390,0.153,-1.661,-35.767,43.396,47.241
0.312,-0.194,-1.249,-52.490,6.287,11.230
0.206,-0.501,-0.860,-66.956,-8.606,-12.695
0.144,-0.714,-0.485,-76.294,-7.507,-19.714
0.130,-0.878,-0.203,-75.439,0.977,-15.686
0.149,-1.010,-0.037,-63.171,9.949,-8.850
0.152,-1.074,-0.005,-44.312,15.259,-1.831
0.170,-1.026,-0.105,-23.071,13.733,4.578
0.170,-0.979,-0.304,-1.587,8.606,8.606
0.164,-0.893,-0.517,13.489,4.639,9.705
0.150,-0.776,-0.707,20.386,0.305,9.033
0.160,-0.687,-0.873,22.461,-4.333,7.263
0.176,-0.608,-1.006,19.043,-8.545,5.127
0.220,-0.559,-1.082,11.169,-13.428,2.502
0.247,-0.543,-1.096,-0.305,-15.991,-1.465
0.280,-0.547,-1.055,-13.245,-15.930,-4.578
0.311,-0.577,-0.953,-25.818,-14.038,-5.676
0.328,-0.598,-0.796,-36.926,-9.155,-4.883
0.340,-0.614,-0.673,-39.856,-2.197,-3.662
0.349,-0.680,-0.614,-35.156,0.427,-4.333
0.353,-0.717,-0.594,-29.114,-2.808,-3.296
0.361,-0.719,-0.601,-25.635,-4.883,-2.625
0.358,-0.719,-0.627,-23.682,-4.150,-3.845
0.341,-0.704,-0.664,-23.437,-2.808,-5.371
0.319,-0.672,-0.722,-24.841,-1.587,-5.554
0.314,-0.631,-0.790,-27.710,-1.160,-5.920
0.301,-0.604,-0.859,-32.043,-1.404,-8.545
0.295,-0.548,-0.938,-39.856,-4.883,-14.709
0.269,-0.531,-0.969,-48.767,-9.705,-19.104
0.246,-0.542,-0.927,-59.326,-11.658,-21.912
0.183,-0.534,-0.859,-71.655,-8.545,-25.879
0.145,-0.522,-0.821,-75.989,-4.333,-25.757
0.122,-0.562,-0.794,-76.904,-2.319,-19.775
0.122,-0.587,-0.776,-78.125,3.906,-11.536
0.131,-0.600,-0.746,-80.933,11.414,-5.066
0.144,-0.615,-0.727,-81.299,16.785,1.343
0.145,-0.628,-0.731,-81.360,19.043,5.066
0.177,-0.600,-0.770,-82.214,16.052,7.263
0.190,-0.597,-0.828,-84.229,11.963,8.240
0.190,-0.594,-0.880,-91.675,10.437,4.211
0.187,-0.582,-0.906,-103.760,9.460,-1.404
0.199,-0.565,-0.906,-117.065,6.653,-5.493
0.205,-0.531,-0.847,-130.737,1.709,-9.949
0.156,-0.509,-0.748,-142.578,-2.197,-18.372
0.130,-0.528,-0.660,-146.851,-5.188,-24.780
0.101,-0.559,-0.578,-145.813,-7.629,-23.071
0.080,-0.574,-0.523,-143.738,-8.179,-18.494
0.051,-0.605,-0.496,-140.381,-5.798,-13.428
0.056,-0.621,-0.485,-137.451,-1.831,-5.371
0.080,-0.615,-0.503,-137.634,4.761,3.052
0.131,-0.614,-0.555,-142.334,13.489,8.301
0.171,-0.614,-0.570,-154.541,23.926,9.705
0.198,-0.589,-0.537,-171.875,32.532,7.996
0.237,-0.557,-0.494,-188.232,32.410,3.479
0.243,-0.541,-0.410,-200.562,21.484,-4.822
0.196,-0.533,-0.291,-209.961,5.676,-15.564
0.132,-0.500,-0.163,-213.440,-8.240,-23.315
0.109,-0.505,-0.055,-208.069,-17.517,-24.170
0.082,-0.545,0.058,-199.341,-17.883,-20.203
0.052,-0.567,0.113,-192.627,-9.155,-13.367
0.104,-0.579,0.099,-185.730,2.991,-2.991
0.172,-0.615,0.123,-188.232,20.752,5.920
0.225,-0.637,0.217,-201.172,42.114,9.644
0.279,-0.644,0.293,-212.769,53.223,10.071
0.322,-0.646,0.343,-216.370,47.791,6.653
0.314,-0.664,0.393,-215.942,26.611,-0.854
0.259,-0.674,0.480,-214.722,3.357,-9.155
0.200,-0.671,0.588,-207.764,-9.705,-12.695
0.221,-0.653,0.659,-192.139,-14.160,-10.071
0.248,-0.673,0.739,-177.734,-7.996,-6.592
0.281,-0.701,0.833,-172.729,6.592,-3.784
0.321,-0.979,1.904,97.900,-18.311,-2.625
0.294,-1.033,1.949,121.826,-40.100,-8.240
0.203,-1.070,2.059,141.357,-54.382,-13.428
0.111,-1.080,2.184,165.405,-61.218,-9.827
0.004,-1.012,2.253,196.350,-58.044,-1.221
-0.116,-0.979,2.307,233.276,-38.208,13.977
-0.173,-0.898,2.241,273.743,-0.671,36.499
-0.127,-0.744,2.004,312.134,40.833,59.570
-0.047,-0.657,1.731,335.632,73.975,68.542
0.013,-0.603,1.526,348.083,84.900,67.993
0.120,-0.415,1.310,352.600,65.186,61.462
0.197,-0.170,1.065,359.009,23.010,44.067
0.211,-0.053,0.897,367.859,-12.573,25.085
0.204,0.124,0.695,375.061,-38.391,14.465
0.240,0.262,0.456,382.141,-60.364,12.390
0.249,0.408,0.241,383.362,-70.129,12.146
0.259,0.485,0.128,380.188,-66.223,13.977
0.270,0.571,-0.101,380.676,-59.814,21.729
0.333,0.616,-0.438,382.446,-56.580,30.579
0.404,0.648,-0.753,374.146,-46.631,39.917
0.429,0.683,-1.039,357.483,-30.823,47.241
0.454,0.736,-1.359,339.355,-17.273,50.476
0.431,0.726,-1.657,317.139,-1.587,52.856
0.302,0.772,-1.931,287.964,22.644,58.838
0.191,0.849,-2.216,253.723,52.246,68.665
0.130,0.843,-2.522,218.872,85.083,87.036
0.118,0.760,-2.694,173.767,111.267,101.318
0.068,0.663,-2.727,122.437,119.812,102.539
0.076,0.523,-2.643,71.045,110.229,93.018
0.162,0.340,-2.405,21.301,92.407,79.590
0.214,0.163,-2.015,-24.109,70.862,57.861
0.229,-0.043,-1.600,-56.641,46.875,31.189
0.228,-0.257,-1.213,-74.463,21.851,11.108
0.205,-0.467,-0.858,-82.581,4.578,1.831
0.218,-0.666,-0.548,-84.961,0.671,-2.075
0.229,-0.815,-0.291,-81.909,3.052,-1.465
0.223,-0.934,-0.114,-73.120,11.414,3.357
0.260,-0.981,-0.054,-58.289,22.339,10.986
0.318,-1.023,-0.100,-40.161,30.273,19.348
0.367,-1.025,-0.199,-24.719,31.799,23.621
0.396,-0.980,-0.312,-14.099,26.062,21.362
0.370,-0.928,-0.438,-6.592,14.893,13.000
0.325,-0.862,-0.555,-1.404,2.319,4.578
0.277,-0.807,-0.660,1.038,-8.179,-2.197
0.240,-0.751,-0.745,0.488,-14.465,-6.348
0.229,-0.730,-0.770,-4.150,-16.663,-8.850
0.220,-0.710,-0.743,-9.644,-16.296,-8.179
0.245,-0.693,-0.695,-13.794,-13.672,-4.517
0.276,-0.683,-0.661,-14.099,-8.606,0.183
0.327,-0.716,-0.661,-11.902,-4.211,2.380
0.378,-0.724,-0.659,-11.292,-2.502,4.211
0.421,-0.707,-0.665,-13.000,-3.235,3.967
0.441,-0.695,-0.684,-14.099,-6.653,-0.610
0.444,-0.684,-0.712,-15.808,-11.230,-7.324
0.432,-0.668,-0.748,-18.738,-17.395,-14.099
0.411,-0.647,-0.801,-23.315,-23.987,-20.386
0.377,-0.639,-0.812,-30.090,-28.320,-25.452
0.298,-0.621,-0.767,-38.452,-26.428,-27.893
0.224,-0.594,-0.748,-42.236,-19.836,-25.940
0.181,-0.617,-0.763,-41.565,-13.367,-20.325
0.162,-0.555,-0.788,-42.175,-7.874,-13.733
0.155,-0.578,-0.832,-40.833,-1.282,-5.615
0.157,-0.594,-0.870,-43.579,3.967,-2.136
0.158,-0.593,-0.907,-50.720,6.348,0.793
0.171,-0.572,-0.924,-60.913,6.470,2.747
0.196,-0.570,-0.920,-70.862,4.944,2.502
0.212,-0.537,-0.926,-80.872,-1.160,-0.549
0.212,-0.536,-0.941,-89.111,-9.949,-5.005
0.220,-0.535,-0.938,-100.098,-19.226,-11.292
0.221,-0.524,-0.901,-112.305,-28.076,-17.822
0.193,-0.504,-0.851,-124.512,-34.424,-23.987
0.177,-0.523,-0.802,-134.338,-37.048,-27.649
0.176,-0.503,-0.722,-141.418,-36.682,-27.710
0.135,-0.515,-0.634,-146.240,-33.447,-25.452
0.135,-0.543,-0.608,-145.752,-27.832,-22.156
0.132,-0.530,-0.586,-143.616,-24.414,-16.663
0.145,-0.524,-0.588,-142.273,-20.935,-8.606
0.168,-0.535,-0.603,-142.578,-16.846,-4.211
0.202,-0.516,-0.645,-148.071,-13.672,-2.991
0.209,-0.521,-0.640,-160.645,-9.705,-5.859
0.218,-0.505,-0.604,-176.941,-7.446,-9.888
0.239,-0.471,-0.544,-194.397,-11.047,-14.343
0.244,-0.449,-0.472,-209.045,-17.944,-20.630
0.230,-0.440,-0.365,-221.008,-27.222,-29.236
0.178,-0.438,-0.228,-230.164,-36.743,-36.804
0.122,-0.443,-0.063,-233.948,-41.382,-39.856
0.088,-0.419,0.092,-229.797,-42.175,-37.048
0.086,-0.427,0.166,-217.896,-39.246,-30.518
0.115,-0.483,0.174,-206.482,-28.503,-21.912
0.134,-0.500,0.186,-209.045,-7.690,-15.137
0.166,-0.488,0.207,-220.337,17.151,-10.925
0.212,-0.481,0.252,-232.971,37.048,-8.789
0.280,-0.470,0.322,-245.728,46.021,-11.292
0.318,-0.462,0.427,-260.254,40.955,-19.775
0.325,-0.478,0.577,-271.057,18.860,-30.518
0.256,-0.513,0.825,-273.010,-16.113,-39.185
0.178,-0.531,1.044,-262.329,-49.866,-42.053
0.185,-0.549,1.161,-232.483,-77.820,-39.185
0.181,-0.595,1.231,-200.134,-93.323,-34.790
0.159,-0.629,1.298,-182.068,-84.412,-32.043
-0.103,-0.832,2.427,163.696,-100.159,4.456
-0.175,-0.838,2.538,199.036,-91.370,12.878
-0.223,-0.836,2.551,242.432,-76.111,29.114
-0.300,-0.815,2.450,289.795,-54.871,44.312
-0.278,-0.722,2.265,335.205,-27.710,57.617
-0.281,-0.618,2.043,376.953,-5.554,74.463
-0.213,-0.479,1.812,413.879,1.404,89.966
-0.117,-0.310,1.591,447.754,-7.080,101.807
-0.037,-0.119,1.353,475.647,-24.902,107.544
0.031,-0.003,1.121,494.019,-48.279,106.995
0.105,0.095,0.816,501.404,-70.190,104.004
0.156,0.190,0.499,493.103,-75.806,102.234
0.225,0.245,0.289,469.849,-56.763,99.915
0.286,0.280,0.207,439.453,-32.593,94.666
0.333,0.351,0.215,411.987,-20.386,88.440
0.331,0.461,0.132,395.447,-15.991,81.848
0.364,0.531,-0.110,389.709,-19.043,78.735
0.417,0.537,-0.334,382.385,-23.560,79.285
0.392,0.594,-0.620,366.699,-17.090,75.684
0.446,0.599,-0.913,347.412,-11.841,71.960
0.465,0.649,-1.149,319.153,-5.615,71.350
0.444,0.686,-1.380,289.246,10.437,67.078
0.345,0.745,-1.653,260.315,23.865,66.650
0.317,0.833,-1.909,230.896,35.828,73.059
0.228,0.875,-2.102,199.280,56.824,86.609
0.152,0.904,-2.280,167.053,75.745,97.839
0.155,0.858,-2.423,132.568,78.430,102.966
0.158,0.689,-2.459,93.811,80.017,100.342
0.180,0.495,-2.332,48.584,79.712,88.867
0.200,0.297,-2.029,1.709,67.078,68.726
0.198,0.092,-1.641,-35.706,54.443,47.302
0.197,-0.141,-1.255,-58.777,44.861,28.992
0.199,-0.365,-0.909,-67.749,33.508,17.334
0.216,-0.631,-0.622,-67.139,24.780,10.925
0.230,-0.784,-0.399,-64.392,17.029,3.906
0.228,-0.870,-0.212,-54.199,10.254,-0.427
0.214,-0.956,-0.194,-34.180,5.310,-2.808
0.204,-0.983,-0.298,-15.625,-0.854,-4.089
0.203,-0.917,-0.438,-5.066,-5.798,-1.160
0.201,-0.839,-0.591,3.113,-5.737,1.343
0.217,-0.732,-0.733,6.470,-7.202,-0.488
0.236,-0.652,-0.839,7.446,-10.864,-0.549
0.250,-0.576,-0.899,5.249,-13.794,-1.709
0.271,-0.529,-0.933,2.441,-15.503,-2.319
0.312,-0.528,-0.921,-0.549,-15.564,-1.526
0.339,-0.534,-0.892,-5.493,-11.597,-1.526
0.356,-0.556,-0.855,-9.094,-8.362,-2.014
0.362,-0.582,-0.820,-12.573,-6.775,-1.404
0.382,-0.607,-0.792,-16.357,-4.639,-0.122
0.382,-0.628,-0.768,-20.386,-1.892,-0.793
0.354,-0.635,-0.746,-24.536,1.465,-2.625
0.338,-0.626,-0.749,-26.489,3.357,-2.441
0.359,-0.603,-0.785,-28.076,2.686,-2.319
0.372,-0.583,-0.827,-30.518,1.831,-5.371
0.361,-0.561,-0.869,-34.241,-0.671,-11.841
0.342,-0.535,-0.901,-38.940,-6.470,-19.226
0.335,-0.550,-0.850,-45.349,-11.108,-25.085
0.276,-0.552,-0.743,-52.246,-10.376,-29.480
0.230,-0.564,-0.699,-51.880,-8.972,-31.189
0.214,-0.609,-0.726,-45.654,-10.864,-25.818
0.224,-0.628,-0.743,-44.922,-9.460,-19.104
0.212,-0.639,-0.729,-48.279,-2.930,-13.977
0.211,-0.635,-0.726,-50.415,2.319,-8.972
0.234,-0.618,-0.776,-50.720,3.296,-4.517
0.255,-0.611,-0.856,-53.406,3.540,-2.930
0.264,-0.582,-0.921,-60.913,3.662,-5.188
0.266,-0.548,-0.971,-71.289,2.014,-9.766
0.276,-0.529,-1.008,-82.275,-2.747,-15.686
0.281,-0.468,-1.007,-95.032,-7.690,-22.278
0.248,-0.406,-0.967,-108.276,-11.169,-32.410
0.189,-0.418,-0.914,-113.220,-13.428,-39.612
0.137,-0.433,-0.882,-115.295,-16.174,-39.490
0.118,-0.438,-0.877,-118.530,-14.343,-35.522
0.111,-0.453,-0.871,-123.901,-8.545,-30.029
0.140,-0.468,-0.866,-131.592,-0.244,-24.231
0.176,-0.472,-0.843,-142.090,6.775,-19.958
0.229,-0.470,-0.817,-153.992,9.155,-19.348
0.260,-0.477,-0.781,-165.344,6.897,-23.865
0.263,-0.486,-0.749,-176.514,1.648,-32.043
0.256,-0.481,-0.704,-188.171,-6.958,-40.283
0.221,-0.475,-0.641,-199.158,-15.076,-48.889
0.173,-0.469,-0.584,-208.557,-22.034,-56.335
0.124,-0.455,-0.506,-215.820,-27.527,-60.608
0.068,-0.457,-0.376,-221.252,-27.527,-62.012
0.017,-0.454,-0.285,-221.497,-18.372,-59.021
0.041,-0.459,-0.251,-217.041,-7.385,-49.927
0.049,-0.475,-0.229,-215.393,6.409,-40.527
0.059,-0.501,-0.187,-219.971,24.231,-34.424
0.101,-0.501,-0.148,-227.905,36.865,-27.222
0.131,-0.500,-0.116,-236.938,41.748,-23.804
0.138,-0.501,-0.094,-245.972,41.382,-25.818
0.138,-0.475,-0.078,-256.897,35.034,-28.992
0.139,-0.427,-0.057,-270.081,23.254,-33.020
0.140,-0.380,0.020,-284.241,9.399,-39.795
0.109,-0.345,0.170,-298.340,-2.686,-47.791
0.094,-0.313,0.421,-308.228,-14.343,-53.894
0.051,-0.318,0.739,-307.373,-21.362,-59.082
0.006,-0.378,1.000,-293.335,-21.179,-59.265
-0.029,-0.468,1.209,-269.897,-14.587,-49.561
-0.026,-0.491,1.364,-242.676,0.732,-37.170
-0.077,-0.823,2.268,189.392,-64.514,12.024
-0.163,-0.826,2.318,219.788,-60.242,18.860
-0.192,-0.762,2.287,257.507,-49.561,31.372
-0.245,-0.710,2.212,299.194,-35.339,46.448
-0.256,-0.616,2.098,339.172,-13.062,63.660
-0.238,-0.481,1.937,375.366,10.010,81.848
-0.229,-0.350,1.709,411.072,24.109,97.717
-0.180,-0.199,1.460,440.247,28.748,110.107
-0.134,-0.034,1.228,464.783,23.743,118.652
-0.089,0.143,0.973,488.037,12.390,122.925
-0.052,0.295,0.670,510.864,0.122,129.456
0.004,0.466,0.370,520.630,-9.155,138.245
0.116,0.617,0.025,514.954,-7.812,141.113
0.190,0.603,-0.329,494.080,7.568,133.972
0.211,0.525,-0.588,456.970,34.241,127.502
0.268,0.506,-0.651,405.762,52.307,121.948
0.281,0.536,-0.591,360.107,61.462,114.563
0.257,0.543,-0.632,334.351,66.650,104.736
0.266,0.534,-0.767,319.641,61.829,100.708
0.303,0.544,-0.946,304.565,56.213,100.830
0.289,0.539,-1.191,290.039,49.927,93.628
0.282,0.521,-1.471,272.095,40.771,83.923
0.243,0.553,-1.698,243.591,36.011,75.684
0.215,0.582,-1.873,207.886,37.720,67.505
0.155,0.624,-2.025,169.800,42.969,61.279
0.115,0.609,-2.159,133.545,49.988,61.279
0.095,0.587,-2.199,94.238,55.420,58.655
0.081,0.524,-2.147,54.810,57.800,50.476
0.075,0.424,-2.016,20.691,50.659,39.978
0.078,0.282,-1.812,-7.629,37.292,29.175
0.093,0.086,-1.562,-30.579,27.710,18.066
0.147,-0.121,-1.276,-48.828,24.170,9.277
0.199,-0.290,-0.997,-62.744,21.057,4.089
0.259,-0.455,-0.777,-67.444,15.320,0.488
0.313,-0.648,-0.607,-64.819,8.606,-0.671
0.376,-0.759,-0.460,-63.171,3.540,-3.296
0.420,-0.823,-0.354,-57.922,1.343,-7.080
0.438,-0.869,-0.309,-46.875,-1.587,-12.695
0.448,-0.883,-0.322,-32.837,-5.920,-17.456
0.402,-0.864,-0.395,-18.921,-10.498,-23.315
0.325,-0.833,-0.507,-6.470,-15.076,-27.710
0.262,-0.775,-0.623,2.563,-18.250,-27.588
0.224,-0.708,-0.728,7.324,-17.761,-23.376
0.206,-0.654,-0.820,8.667,-13.367,-17.029
0.211,-0.613,-0.892,6.836,-8.728,-10.864
0.242,-0.587,-0.929,1.648,-4.822,-6.714
0.281,-0.573,-0.922,-5.981,-1.099,-4.578
0.330,-0.557,-0.891,-13.855,-0.549,-3.967
0.356,-0.540,-0.861,-19.653,-3.784,-5.615
0.366,-0.535,-0.845,-22.522,-8.606,-9.521
0.362,-0.548,-0.824,-24.841,-12.207,-14.221
0.362,-0.565,-0.778,-27.100,-14.282,-16.968
0.375,-0.570,-0.736,-28.992,-14.832,-17.822
0.373,-0.596,-0.714,-29.419,-12.939,-20.264
0.368,-0.573,-0.708,-28.259,-12.329,-22.217
0.351,-0.594,-0.723,-25.818,-13.367,-21.240
0.335,-0.615,-0.769,-24.841,-13.794,-19.592
0.316,-0.569,-0.813,-28.015,-14.038,-20.325
0.291,-0.537,-0.853,-32.837,-13.428,-20.325
0.284,-0.556,-0.902,-35.889,-11.536,-18.250
0.272,-0.517,-0.933,-43.579,-11.292,-19.470
0.250,-0.479,-0.967,-52.002,-12.878,-22.400
0.241,-0.468,-0.993,-57.983,-15.137,-24.414
0.230,-0.451,-1.002,-66.345,-17.273,-27.466
0.220,-0.459,-0.983,-76.111,-17.151,-30.579
0.218,-0.439,-0.950,-84.717,-16.541,-33.203
0.202,-0.460,-0.927,-91.187,-17.090,-34.973
0.190,-0.486,-0.923,-96.619,-18.372,-35.095
0.178,-0.485,-0.903,-104.431,-19.592,-34.485
0.162,-0.487,-0.888,-111.877,-20.020,-33.752
0.165,-0.500,-0.897,-118.835,-20.996,-32.166
0.163,-0.490,-0.892,-128.357,-19.470,-29.846
0.154,-0.470,-0.879,-138.916,-15.442,-28.992
0.161,-0.451,-0.876,-149.597,-13.184,-28.992
0.183,-0.466,-0.878,-158.630,-11.780,-27.710
0.171,-0.461,-0.847,-171.448,-10.498,-29.724
0.164,-0.420,-0.784,-186.646,-9.094,-32.654
0.173,-0.423,-0.722,-196.899,-8.484,-33.936
0.181,-0.428,-0.646,-204.956,-9.399,-35.522
0.169,-0.435,-0.581,-212.097,-9.766,-38.574
0.164,-0.451,-0.519,-217.529,-9.949,-39.795
0.164,-0.453,-0.442,-222.351,-9.094,-38.391
0.161,-0.452,-0.363,-227.051,-4.883,-36.255
0.176,-0.469,-0.299,-230.652,-0.793,-33.997
0.166,-0.485,-0.250,-235.901,2.991,-32.349
0.154,-0.471,-0.197,-240.540,3.479,-30.762
0.156,-0.460,-0.172,-245.483,0.977,-29.846
0.142,-0.457,-0.145,-252.991,0.305,-29.846
0.119,-0.442,-0.099,-263.672,3.418,-29.358
0.105,-0.397,-0.045,-274.902,6.042,-26.917
0.143,-0.361,0.073,-285.400,6.958,-26.489
0.148,-0.347,0.270,-296.936,8.545,-29.602
0.165,-0.332,0.486,-304.260,5.737,-35.339
0.161,-0.356,0.749,-302.368,-3.601,-42.175
0.124,-0.432,0.974,-291.382,-11.963,-48.462
0.108,-0.492,1.117,-269.226,-21.545,-47.424
0.109,-0.545,1.178,-241.028,-26.917,-40.955
0.090,-0.610,1.195,-216.858,-24.109,-35.400
0.075,-0.651,1.170,-198.792,-18.127,-31.250
0.110,-0.660,1.117,-186.646,-14.771,-27.405
0.146,0.966,-2.390,219.055,49.622,72.632
0.074,1.016,-2.658,177.979,56.091,78.369
0.078,0.976,-2.829,130.127,61.584,81.482
0.122,0.833,-2.808,78.796,64.087,77.759
0.173,0.641,-2.588,23.499,54.688,64.331
0.191,0.429,-2.164,-26.672,40.649,44.495
0.201,0.159,-1.702,-62.561,28.320,23.437
0.207,-0.115,-1.252,-83.679,16.663,8.118
0.219,-0.405,-0.856,-92.773,9.094,1.770
0.277,-0.669,-0.499,-94.238,4.089,-2.502
0.321,-0.862,-0.186,-90.759,2.441,-6.226
0.337,-1.012,0.032,-78.796,3.357,-9.399
0.318,-1.078,0.126,-58.960,3.052,-11.780
0.277,-1.094,0.068,-33.386,0.793,-12.390
0.257,-1.109,-0.114,-8.057,-5.127,-9.583
0.241,-1.068,-0.288,7.263,-6.714,-6.592
0.219,-0.992,-0.413,13.245,-3.113,-6.287
0.193,-0.912,-0.537,18.066,-2.136,-5.981
0.182,-0.836,-0.655,22.583,-5.371,-4.944
0.171,-0.764,-0.760,24.841,-8.301,-4.028
0.181,-0.707,-0.845,24.841,-10.498,-1.953
0.215,-0.674,-0.887,21.240,-10.986,0.977
0.258,-0.659,-0.885,13.855,-8.057,4.150
0.298,-0.648,-0.852,5.249,-4.517,6.775
0.336,-0.644,-0.812,-1.465,-3.540,8.545
0.367,-0.630,-0.785,-6.165,-3.845,8.728
0.391,-0.617,-0.772,-9.521,-3.235,6.470
0.416,-0.610,-0.755,-12.207,-2.197,3.357
0.417,-0.612,-0.739,-14.099,-1.282,-0.366
0.395,-0.615,-0.734,-15.320,-2.747,-4.883
0.366,-0.613,-0.737,-15.991,-5.432,-8.240
0.337,-0.621,-0.727,-16.968,-7.874,-11.047
0.293,-0.640,-0.723,-18.250,-9.155,-12.390
0.269,-0.618,-0.724,-19.958,-9.644,-12.146
0.252,-0.652,-0.712,-21.851,-8.301,-10.071
0.247,-0.687,-0.700,-24.597,-3.113,-6.592
0.240,-0.694,-0.676,-28.687,2.686,-4.211
0.235,-0.701,-0.664,-30.579,6.775,-1.465
0.248,-0.698,-0.670,-30.945,7.935,0.854
0.262,-0.694,-0.689,-30.334,6.836,0.732
0.258,-0.677,-0.717,-30.640,4.822,-1.709
0.251,-0.679,-0.751,-30.640,1.465,-5.371
0.249,-0.665,-0.794,-32.593,-3.723,-7.751
0.243,-0.659,-0.825,-36.560,-7.751,-9.705
0.242,-0.604,-0.878,-42.542,-10.071,-13.672
0.230,-0.603,-0.918,-49.316,-11.597,-16.541
0.222,-0.582,-0.923,-58.655,-12.024,-18.311
0.203,-0.560,-0.902,-68.542,-12.085,-20.386
0.220,-0.582,-0.850,-75.928,-11.902,-21.057
0.218,-0.598,-0.752,-83.008,-10.620,-20.874
0.205,-0.622,-0.675,-85.388,-7.507,-21.301
0.191,-0.653,-0.632,-82.458,-5.981,-19.470
0.179,-0.677,-0.613,-78.186,-5.249,-14.282
0.171,-0.698,-0.604,-75.073,-3.784,-8.911
0.170,-0.705,-0.601,-72.510,-2.869,-4.578
0.183,-0.692,-0.624,-71.472,-3.357,-0.977
0.209,-0.690,-0.675,-72.754,-2.380,0.183
0.210,-0.687,-0.715,-77.820,0.610,-0.671
0.212,-0.707,-0.726,-87.524,4.211,-2.014
0.227,-0.667,-0.724,-100.342,5.371,-2.808
0.247,-0.671,-0.700,-110.474,5.493,-3.601
0.243,-0.650,-0.671,-119.751,3.418,-7.019
0.230,-0.658,-0.647,-127.014,-1.770,-12.573
0.223,-0.658,-0.596,-131.775,-8.911,-17.029
0.211,-0.657,-0.510,-135.376,-15.076,-20.142
0.197,-0.670,-0.447,-135.315,-16.785,-22.217
0.175,-0.692,-0.416,-132.324,-17.212,-21.484
0.170,-0.701,-0.408,-129.150,-15.991,-16.663
0.187,-0.691,-0.413,-128.967,-10.925,-10.315
0.206,-0.703,-0.438,-132.385,-2.869,-6.470
0.221,-0.704,-0.456,-140.625,5.676,-4.822
0.235,-0.693,-0.451,-153.442,11.902,-3.723
0.236,-0.674,-0.427,-167.175,14.465,-3.418
0.244,-0.648,-0.387,-179.504,13.916,-4.272
0.249,-0.629,-0.320,-189.331,10.803,-5.920
0.238,-0.626,-0.265,-196.106,4.639,-8.362
0.235,-0.602,-0.225,-199.219,-6.165,-11.108
0.241,-0.578,-0.193,-198.914,-19.958,-15.442
0.240,-0.566,-0.178,-199.402,-30.884,-22.461
0.225,-0.549,-0.149,-204.163,-34.302,-30.762
0.217,-0.538,-0.112,-214.478,-32.471,-36.682
0.211,-0.532,-0.048,-229.187,-26.794,-40.344
0.209,-0.517,0.059,-244.446,-17.822,-42.480
0.202,-0.495,0.164,-256.531,-10.986,-42.114
0.180,-0.490,0.233,-263.123,-10.559,-41.687
0.150,-0.478,0.292,-265.503,-13.672,-42.053
0.113,-0.454,0.371,-264.832,-16.235,-41.931
0.089,-0.453,0.461,-258.545,-17.273,-41.321
0.093,-0.465,0.622,-249.023,-16.296,-39.734
0.092,-0.434,0.824,-238.525,-12.390,-37.903
0.094,-0.456,0.957,-220.947,-11.230,-34.302
0.122,-0.489,1.047,-199.890,-12.695,-26.917
0.137,-0.510,1.164,-188.538,-11.963,-20.996
0.132,-0.520,1.248,-184.204,-8.728,-18.799
0.157,-0.549,1.282,-178.345,-6.042,-20.020
0.157,-0.594,1.308,-171.997,-3.113,-25.024
0.142,-0.636,1.335,-169.922,-1.526,-31.494
0.118,-0.677,1.346,-167.847,-5.066,-34.485
0.082,-0.698,1.390,-161.499,-13.977,-34.302
0.024,-0.797,1.486,-148.926,-22.156,-32.410
-0.215,-0.712,2.641,186.279,-77.698,19.836
-0.286,-0.717,2.750,230.957,-81.665,30.396
-0.380,-0.648,2.816,281.555,-73.486,45.044
-0.442,-0.651,2.782,345.093,-53.589,66.650
-0.475,-0.525,2.640,407.349,-26.794,88.196
-0.455,-0.385,2.413,466.003,-4.700,114.502
-0.350,-0.176,2.133,514.832,10.376,140.442
-0.282,-0.001,1.820,548.523,23.865,156.677
-0.181,0.135,1.447,567.078,38.452,164.795
-0.137,0.256,1.084,569.397,52.429,168.274
-0.041,0.353,0.791,562.134,63.049,167.664
0.050,0.494,0.571,547.668,60.547,165.955
0.117,0.618,0.412,530.273,50.659,157.593
0.152,0.796,0.216,513.062,39.551,143.188
0.220,0.865,-0.030,498.291,25.513,126.892
0.279,0.826,-0.253,480.042,14.282,115.112
0.286,0.875,-0.443,446.594,12.939,101.074
0.309,0.930,-0.655,414.185,18.188,89.722
0.281,0.995,-0.929,385.254,25.757,86.426
0.233,1.021,-1.271,358.826,38.391,88.928
0.164,1.140,-1.636,323.425,51.514,91.736
0.084,1.283,-1.956,286.072,60.730,96.191
-0.034,1.416,-2.307,248.352,66.406,99.915
-0.170,1.534,-2.712,207.947,62.195,98.633
-0.157,1.579,-3.040,161.682,49.194,98.206
-0.119,1.446,-3.153,107.727,42.847,96.802
-0.015,1.128,-2.980,48.462,39.368,88.013
0.131,0.796,-2.536,-13.367,30.701,69.519
0.293,0.499,-1.969,-64.819,21.790,46.753
0.380,0.094,-1.398,-94.482,14.465,24.597
0.478,-0.338,-0.834,-109.497,3.662,3.052
0.541,-0.626,-0.311,-114.990,-2.869,-13.306
0.529,-0.835,0.048,-104.675,-3.174,-21.973
0.489,-1.007,0.169,-77.698,-7.446,-24.719
0.432,-1.114,0.085,-45.776,-11.780,-22.339
0.367,-1.081,-0.096,-21.667,-10.437,-16.418
0.296,-1.011,-0.309,-5.615,-4.517,-10.254
0.270,-0.894,-0.505,3.479,-0.549,-5.188
0.233,-0.757,-0.683,9.216,0.427,-0.916
0.205,-0.633,-0.841,13.062,-2.625,-4.089
0.186,-0.554,-0.980,15.320,-10.254,-6.897
0.192,-0.494,-1.066,12.207,-16.113,-8.118
0.221,-0.460,-1.094,4.150,-16.418,-8.118
0.255,-0.474,-1.076,-5.859,-14.282,-6.897
0.324,-0.471,-1.002,-17.395,-12.329,-6.104
0.371,-0.501,-0.866,-26.672,-8.362,-4.761
0.393,-0.527,-0.744,-31.067,-3.052,-4.761
0.406,-0.568,-0.686,-29.114,-1.709,-3.540
0.417,-0.616,-0.675,-23.682,-3.540,-1.404
0.425,-0.639,-0.678,-20.874,-4.333,0.183
0.449,-0.637,-0.667,-20.508,-3.052,1.343
0.466,-0.618,-0.671,-20.020,-1.343,-0.793
0.463,-0.625,-0.709,-17.639,-1.160,-6.775
0.433,-0.605,-0.759,-17.090,-6.836,-12.329
0.401,-0.570,-0.818,-18.555,-12.390,-18.311
0.390,-0.549,-0.856,-22.827,-15.198,-22.949
0.337,-0.531,-0.819,-30.579,-12.634,-26.917
0.281,-0.522,-0.791,-36.072,-5.981,-30.029
0.249,-0.530,-0.781,-35.889,-4.944,-27.588
0.241,-0.549,-0.782,-35.095,-5.188,-21.973
0.234,-0.593,-0.765,-35.767,-3.235,-16.907
0.249,-0.560,-0.744,-37.903,-1.892,-14.954
0.229,-0.572,-0.729,-35.706,-2.563,-11.047
0.248,-0.615,-0.759,-30.762,-4.578,-5.920
0.276,-0.616,-0.795,-31.555,-8.301,-5.188
0.288,-0.624,-0.820,-35.645,-8.728,-5.432
0.288,-0.624,-0.834,-42.175,-6.897,-7.385
0.282,-0.618,-0.849,-49.683,-7.507,-10.254
0.290,-0.613,-0.854,-57.007,-10.864,-12.390
0.289,-0.557,-0.839,-64.575,-13.489,-17.334
0.264,-0.521,-0.804,-70.984,-14.221,-26.062
0.220,-0.573,-0.772,-69.885,-16.235,-30.273
0.209,-0.545,-0.765,-68.115,-20.569,-29.968
0.199,-0.571,-0.740,-66.101,-23.804,-27.954
0.200,-0.611,-0.731,-64.270,-23.926,-24.597
0.213,-0.619,-0.725,-65.247,-22.217,-21.240
0.221,-0.634,-0.722,-67.505,-21.179,-18.372
0.231,-0.648,-0.727,-71.228,-20.386,-15.930
0.230,-0.648,-0.727,-76.721,-17.700,-14.343
0.250,-0.653,-0.726,-83.252,-14.160,-12.207
0.258,-0.644,-0.718,-90.088,-11.536,-10.864
0.277,-0.588,-0.722,-96.191,-9.155,-13.855
0.252,-0.582,-0.718,-98.999,-8.057,-18.799
0.238,-0.598,-0.730,-99.670,-11.047,-22.400
0.224,-0.583,-0.725,-102.783,-16.418,-23.315
0.207,-0.596,-0.720,-107.971,-19.531,-22.949
0.220,-0.600,-0.693,-114.990,-21.118,-22.583
0.229,-0.585,-0.666,-121.948,-21.057,-19.958
0.246,-0.613,-0.634,-129.456,-19.043,-18.066
0.262,-0.630,-0.595,-137.634,-15.625,-17.883
0.264,-0.636,-0.555,-146.240,-12.390,-18.799
0.259,-0.642,-0.524,-152.771,-11.902,-19.409
0.255,-0.635,-0.491,-158.936,-13.123,-19.836
0.244,-0.618,-0.446,-163.574,-14.587,-20.569
0.230,-0.609,-0.411,-165.955,-15.076,-22.339
0.226,-0.606,-0.380,-167.175,-15.442,-23.437
0.231,-0.607,-0.352,-169.983,-15.259,-23.010
0.240,-0.604,-0.336,-174.988,-15.015,-22.583
0.272,-0.592,-0.322,-182.251,-14.648,-22.583
0.304,-0.598,-0.263,-192.078,-11.230,-25.330
-0.203,-0.640,2.646,158.630,-91.064,13.489
-0.280,-0.615,2.857,198.914,-83.191,17.273
-0.329,-0.670,3.060,253.052,-67.505,29.480
-0.408,-0.627,3.213,314.758,-45.837,45.227
-0.475,-0.534,3.261,380.188,-21.912,64.575
-0.505,-0.458,3.135,447.388,8.911,86.914
-0.499,-0.353,2.863,512.512,39.063,119.690
-0.389,-0.185,2.471,568.115,52.979,155.273
-0.260,0.160,2.055,605.896,49.133,178.040
-0.169,0.401,1.604,632.202,37.781,186.584
-0.092,0.584,1.208,644.043,18.188,188.049
-0.060,0.882,0.941,640.442,-4.211,184.265
-0.004,1.139,0.645,633.789,-24.475,172.363
0.077,1.324,0.265,628.052,-46.875,164.917
0.085,1.428,-0.024,603.577,-58.716,153.320
0.068,1.508,-0.247,570.679,-46.021,143.188
0.065,1.613,-0.501,536.011,-26.733,146.179
0.093,1.725,-0.855,500.244,-9.277,155.396
0.094,1.833,-1.321,459.290,8.362,164.429
0.020,2.014,-1.862,409.851,26.978,172.729
0.037,2.185,-2.389,351.379,41.016,181.580
-0.008,2.344,-2.869,282.959,55.481,186.646
-0.032,2.466,-3.325,209.412,61.157,183.105
0.015,2.423,-3.581,129.822,49.194,169.983
0.174,2.100,-3.578,53.955,33.813,149.536
0.323,1.526,-3.183,-20.386,23.865,121.033
0.453,1.147,-2.494,-93.567,16.602,86.548
0.514,0.631,-1.713,-139.526,16.846,53.589
0.629,0.080,-0.952,-153.992,15.991,20.630
0.726,-0.465,-0.322,-148.804,6.042,-7.996
0.758,-0.892,0.168,-133.606,-0.732,-29.663
0.730,-1.126,0.416,-109.863,-1.465,-43.640
0.651,-1.245,0.438,-77.087,-5.737,-48.950
0.558,-1.310,0.278,-39.673,-8.667,-43.335
0.485,-1.242,0.055,-12.512,-6.653,-33.203
0.378,-1.089,-0.193,4.395,-2.869,-22.156
0.320,-0.916,-0.443,18.921,-0.122,-15.381
0.260,-0.730,-0.700,28.442,-3.174,-13.245
0.181,-0.607,-0.930,34.912,-7.141,-15.625
0.150,-0.493,-1.104,33.508,-13.672,-19.531
0.158,-0.370,-1.199,25.024,-18.799,-19.287
0.188,-0.326,-1.235,16.907,-17.456,-15.198
0.253,-0.348,-1.221,5.798,-13.489,-13.367
0.334,-0.369,-1.115,-8.728,-12.268,-12.085
0.390,-0.391,-0.941,-22.095,-9.827,-9.033
0.441,-0.439,-0.798,-28.503,-3.662,-6.348
0.490,-0.500,-0.712,-27.405,0.488,-1.526
0.557,-0.566,-0.660,-23.804,0.793,4.578
0.615,-0.605,-0.606,-21.057,1.038,5.981
0.625,-0.629,-0.590,-17.883,0.854,-0.122
0.603,-0.630,-0.608,-14.099,-2.625,-8.240
0.549,-0.605,-0.647,-10.742,-6.409,-15.442
0.504,-0.572,-0.702,-8.423,-7.935,-20.447
0.434,-0.537,-0.745,-7.935,-7.812,-24.475
0.370,-0.506,-0.776,-8.240,-5.981,-27.039
0.309,-0.488,-0.806,-9.094,-4.211,-25.452
0.278,-0.479,-0.834,-10.681,-1.892,-20.020
0.274,-0.475,-0.846,-13.794,1.038,-13.000
0.276,-0.483,-0.825,-17.639,4.822,-7.080
0.289,-0.496,-0.794,-20.386,9.888,-3.906
0.300,-0.520,-0.782,-20.935,10.315,-0.732
0.351,-0.538,-0.763,-20.630,7.019,2.563
0.381,-0.550,-0.746,-20.508,4.700,1.160
0.388,-0.566,-0.737,-19.470,1.892,-4.761
0.373,-0.575,-0.742,-17.395,-3.174,-9.705
0.352,-0.576,-0.758,-15.442,-7.690,-12.146
0.343,-0.568,-0.804,-15.259,-9.705,-12.634
0.378,-0.559,-0.857,-18.127,-8.728,-12.085
0.384,-0.555,-0.868,-24.658,-2.869,-14.709
0.377,-0.544,-0.851,-31.433,0.366,-17.883
0.365,-0.515,-0.829,-35.767,-2.136,-20.630
0.361,-0.501,-0.818,-37.598,-5.005,-23.376
0.342,-0.501,-0.807,-38.330,-6.287,-26.001
0.312,-0.498,-0.789,-38.696,-6.531,-28.259
0.281,-0.501,-0.794,-36.987,-8.484,-27.832
0.268,-0.499,-0.833,-35.095,-10.315,-24.719
0.266,-0.511,-0.877,-36.499,-8.667,-20.874
0.262,-0.516,-0.906,-42.419,-3.174,-17.395
0.266,-0.506,-0.935,-51.392,2.014,-13.916
0.277,-0.474,-0.940,-61.646,6.775,-10.498
0.293,-0.454,-0.956,-70.984,11.292,-8.972
0.316,-0.424,-0.980,-78.430,10.742,-10.437
0.327,-0.399,-1.007,-86.060,7.263,-15.198
0.309,-0.382,-1.026,-93.323,2.075,-21.362
0.303,-0.364,-1.043,-100.952,-4.883,-27.832
0.285,-0.349,-1.051,-110.901,-10.803,-33.386
0.254,-0.362,-1.050,-121.521,-14.709,-38.025
0.246,-0.323,-1.045,-134.033,-17.578,-41.626
0.223,-0.322,-1.015,-147.644,-17.212,-42.297
0.226,-0.344,-0.973,-159.485,-13.245,-40.894
0.234,-0.342,-0.934,-173.401,-9.766,-39.612
0.239,-0.337,-0.876,-186.829,-5.859,-38.269
0.243,-0.345,-0.824,-197.571,-2.258,-37.781
0.258,-0.353,-0.784,-207.214,-1.770,-37.781
0.250,-0.354,-0.734,-216.736,-4.089,-39.124
0.241,-0.362,-0.683,-226.257,-7.568,-41.077
0.231,-0.355,-0.637,-235.474,-10.681,-42.236
0.232,-0.366,-0.600,-245.972,-12.512,-44.250
0.197,-0.385,-0.547,-259.521,-10.681,-47.852
0.161,-0.377,-0.467,-274.658,-7.507,-48.523
-0.237,-0.508,2.456,233.398,-86.548,44.800
-0.263,-0.499,2.401,275.146,-79.041,58.350
-0.273,-0.478,2.322,318.115,-63.538,73.975
-0.265,-0.351,2.195,353.210,-48.523,88.135
-0.222,-0.253,1.985,388.245,-32.410,101.685
-0.179,-0.227,1.703,420.898,-14.282,113.831
-0.118,-0.101,1.459,437.134,5.188,117.432
-0.053,-0.010,1.340,444.519,18.311,120.667
-0.014,0.074,1.224,456.299,13.062,121.765
0.039,0.151,1.139,475.159,-8.362,120.911
0.054,0.268,1.069,492.676,-35.400,118.896
0.042,0.354,0.993,511.047,-57.190,119.385
0.003,0.431,0.836,530.457,-62.622,127.197
-0.016,0.466,0.579,543.274,-50.293,143.494
0.015,0.511,0.247,538.696,-22.705,158.875
0.083,0.504,-0.018,516.785,11.414,170.044
0.158,0.522,-0.209,485.535,43.091,173.218
0.264,0.587,-0.342,454.041,49.927,166.077
0.313,0.715,-0.559,428.528,34.302,153.442
0.350,0.828,-0.807,409.058,19.653,137.207
0.286,0.922,-1.086,389.771,15.320,122.864
0.171,1.033,-1.431,368.103,14.404,115.845
0.012,1.211,-1.826,339.722,13.977,118.530
-0.150,1.371,-2.242,302.002,20.447,127.991
-0.309,1.510,-2.659,255.493,35.767,146.423
-0.306,1.582,-2.999,197.754,53.467,165.833
-0.092,1.504,-3.182,131.042,69.580,179.565
0.184,1.234,-3.006,61.096,80.078,171.448
0.478,0.913,-2.509,-1.282,66.833,136.475
0.635,0.619,-1.879,-48.889,39.978,82.397
0.659,0.183,-1.269,-71.716,13.733,30.518
0.683,-0.261,-0.755,-76.111,-9.277,-6.165
0.678,-0.599,-0.302,-72.632,-20.569,-25.452
0.646,-0.856,-0.001,-60.486,-17.517,-31.372
0.589,-1.007,0.127,-39.673,-9.827,-26.855
0.504,-1.026,0.048,-14.832,-0.122,-14.526
0.411,-0.957,-0.181,7.690,10.132,-2.563
0.332,-0.804,-0.472,25.391,16.235,10.193
0.276,-0.619,-0.764,36.560,17.761,20.752
0.245,-0.442,-1.013,40.039,18.250,21.545
0.228,-0.329,-1.211,37.476,12.024,16.663
0.232,-0.226,-1.333,28.320,0.122,8.362
0.244,-0.179,-1.382,15.564,-8.423,-2.014
0.284,-0.218,-1.350,1.953,-12.451,-8.850
0.313,-0.271,-1.224,-14.099,-13.489,-13.611
0.326,-0.331,-1.012,-29.907,-11.475,-16.174
0.336,-0.421,-0.820,-37.659,-6.042,-14.893
0.364,-0.517,-0.691,-37.292,-2.075,-8.728
0.421,-0.609,-0.610,-33.142,0.793,-0.610
0.509,-0.679,-0.513,-29.358,6.409,5.981
0.552,-0.695,-0.452,-24.475,11.414,7.263
0.547,-0.674,-0.479,-15.137,10.193,3.662
0.508,-0.635,-0.580,-3.967,3.906,-1.099
0.448,-0.572,-0.704,2.991,-0.366,-5.432
0.396,-0.504,-0.810,5.371,-1.831,-7.690
0.357,-0.421,-0.900,5.127,-3.967,-9.033
0.327,-0.400,-0.972,2.808,-5.676,-10.620
0.325,-0.380,-1.023,-2.441,-5.920,-11.108
0.336,-0.375,-1.024,-11.536,-5.554,-12.146
0.349,-0.400,-0.959,-20.569,-3.601,-13.428
0.325,-0.432,-0.867,-27.222,-0.854,-13.550
0.308,-0.459,-0.793,-30.640,1.953,-13.611
0.305,-0.496,-0.752,-28.992,3.296,-10.742
0.319,-0.515,-0.743,-25.208,1.587,-7.080
0.338,-0.523,-0.766,-21.606,-0.122,-5.493
0.344,-0.523,-0.808,-19.836,-1.038,-4.822
0.367,-0.509,-0.879,-21.179,-0.793,-4.150
0.375,-0.490,-0.934,-26.306,1.160,-5.188
0.376,-0.470,-0.981,-34.302,2.747,-8.423
0.380,-0.412,-1.012,-42.480,-1.343,-12.939
0.397,-0.386,-1.014,-51.086,-6.348,-18.921
0.396,-0.350,-0.975,-58.716,-9.338,-30.396
0.339,-0.352,-0.926,-60.669,-12.512,-41.809
0.279,-0.365,-0.904,-59.021,-17.578,-45.471
0.230,-0.380,-0.898,-57.617,-19.348,-43.945
0.203,-0.420,-0.901,-57.312,-16.541,-37.659
0.208,-0.441,-0.914,-60.547,-12.146,-28.809
0.233,-0.445,-0.917,-66.711,-6.287,-21.118
0.252,-0.443,-0.923,-73.303,-1.709,-16.663
0.269,-0.430,-0.935,-78.918,-2.258,-14.893
0.275,-0.440,-0.974,-84.534,-6.104,-15.442
0.285,-0.418,-1.012,-93.445,-8.911,-18.311
0.263,-0.390,-1.010,-105.469,-10.132,-21.729
0.250,-0.363,-1.018,-116.028,-10.864,-22.583
0.243,-0.353,-1.007,-126.526,-13.916,-25.696
0.230,-0.312,-0.991,-133.850,-18.250,-26.733
0.219,-0.308,-0.946,-138.733,-21.851,-28.564
0.214,-0.334,-0.927,-141.541,-23.865,-32.288
0.199,-0.340,-0.922,-148.193,-27.344,-34.424
0.200,-0.324,-0.904,-157.898,-28.809,-34.607
0.205,-0.343,-0.870,-167.297,-23.682,-32.166
0.215,-0.346,-0.837,-179.443,-19.470,-33.325
0.215,-0.346,-0.804,-191.711,-18.250,-34.607
0.224,-0.343,-0.774,-204.102,-19.348,-35.583
0.236,-0.338,-0.740,-218.384,-20.935,-38.391
0.235,-0.335,-0.676,-235.474,-21.057,-43.091
0.215,-0.329,-0.582,-252.686,-22.095,-47.302
0.198,-0.317,-0.474,-266.602,-24.658,-51.636
0.185,-0.315,-0.377,-274.963,-27.222,-56.091
0.150,-0.322,-0.292,-280.762,-30.029,-58.960
-0.165,-0.749,2.366,256.287,-46.997,36.682
-0.205,-0.710,2.401,297.241,-53.955,50.354
-0.245,-0.703,2.314,344.543,-47.180,67.749
-0.243,-0.595,2.171,386.780,-28.015,84.717
-0.262,-0.478,2.049,416.321,-3.906,101.868
-0.291,-0.347,1.860,444.580,23.254,119.934
-0.247,-0.242,1.702,470.703,52.063,138.550
-0.208,-0.100,1.567,487.610,80.811,154.785
-0.216,0.054,1.419,500.183,98.389,160.583
-0.148,0.245,1.184,512.756,102.173,158.936
-0.022,0.411,0.889,523.926,90.515,159.485
0.139,0.531,0.488,524.902,76.416,152.344
0.217,0.505,0.146,512.451,65.552,135.193
0.308,0.486,-0.100,484.985,64.819,114.014
0.368,0.548,-0.136,444.153,61.218,92.102
0.376,0.703,-0.196,412.659,55.847,73.975
0.346,0.821,-0.376,396.423,41.931,59.143
0.286,0.977,-0.747,389.038,23.621,52.917
0.194,1.053,-1.124,375.061,14.709,49.133
0.013,1.203,-1.554,352.234,21.362,48.706
-0.046,1.316,-2.005,321.960,26.184,55.786
-0.134,1.520,-2.435,277.649,31.799,62.927
-0.235,1.709,-2.912,230.530,35.583,63.538
-0.296,1.709,-3.286,181.702,29.419,66.406
-0.307,1.533,-3.404,122.009,30.029,71.472
-0.188,1.212,-3.141,52.734,33.447,72.937
0.025,0.895,-2.565,-15.015,34.363,66.650
0.217,0.467,-1.831,-62.927,28.870,54.688
0.350,-0.031,-1.160,-85.938,24.292,39.124
0.499,-0.459,-0.567,-96.191,14.709,19.958
0.599,-0.798,-0.095,-92.590,4.517,6.653
0.657,-1.026,0.179,-77.026,1.648,-1.831
0.650,-1.153,0.255,-51.880,0.183,-6.714
0.581,-1.157,0.133,-24.292,-0.977,-11.414
0.502,-1.022,-0.134,-0.061,-4.272,-15.869
0.391,-0.865,-0.459,19.653,-7.263,-18.677
0.279,-0.676,-0.760,30.884,-12.390,-22.278
0.192,-0.497,-1.020,33.997,-17.883,-26.184
0.138,-0.384,-1.220,31.372,-20.874,-27.893
0.117,-0.321,-1.309,21.484,-21.606,-27.710
0.099,-0.299,-1.296,7.751,-18.799,-26.123
0.114,-0.330,-1.220,-4.944,-14.954,-21.240
0.169,-0.392,-1.105,-16.846,-10.010,-13.184
0.235,-0.460,-0.963,-27.161,-4.272,-4.883
0.316,-0.535,-0.801,-33.691,0.122,0.977
0.396,-0.609,-0.687,-35.278,2.014,4.089
0.468,-0.662,-0.595,-33.386,-0.427,3.784
0.529,-0.704,-0.511,-29.541,-2.625,-0.061
0.525,-0.723,-0.458,-23.071,-4.639,-6.226
0.481,-0.721,-0.475,-13.550,-8.118,-12.451
0.422,-0.703,-0.554,-3.357,-12.268,-15.442
0.361,-0.669,-0.653,2.808,-12.634,-15.625
0.301,-0.618,-0.722,3.540,-7.935,-13.611
0.262,-0.574,-0.770,2.258,-1.160,-9.644
0.257,-0.547,-0.818,1.221,4.211,-4.700
0.271,-0.534,-0.857,-0.427,6.775,-0.427
0.286,-0.526,-0.861,-3.967,7.751,1.831
0.288,-0.531,-0.849,-7.935,8.423,1.587
0.305,-0.548,-0.827,-9.949,6.653,1.160
0.308,-0.566,-0.796,-11.902,3.967,0.427
0.323,-0.582,-0.756,-12.756,3.113,-0.793
0.317,-0.596,-0.713,-11.658,1.526,-1.526
0.316,-0.603,-0.704,-8.728,-0.977,-2.075
0.323,-0.608,-0.711,-5.188,-3.906,-2.258
0.315,-0.609,-0.739,-2.869,-4.333,-2.686
0.298,-0.604,-0.767,-2.625,-3.540,-2.258
0.281,-0.596,-0.785,-4.089,-1.648,-1.587
0.273,-0.580,-0.801,-5.615,-0.122,-0.488
0.287,-0.561,-0.830,-7.263,0.061,0.000
0.295,-0.548,-0.851,-9.827,0.183,-1.892
0.291,-0.545,-0.849,-12.939,0.122,-5.005
0.286,-0.543,-0.838,-15.381,-2.380,-7.263
0.282,-0.534,-0.818,-17.395,-4.456,-8.423
0.278,-0.531,-0.806,-17.883,-4.883,-9.583
0.281,-0.545,-0.802,-17.273,-6.775,-10.437
0.289,-0.544,-0.812,-16.602,-9.277,-9.827
0.312,-0.540,-0.849,-17.517,-10.315,-9.644
0.333,-0.532,-0.879,-20.569,-9.338,-10.742
0.347,-0.517,-0.902,-25.818,-7.812,-12.939
0.363,-0.487,-0.943,-31.494,-9.644,-15.381
0.377,-0.463,-1.013,-37.842,-13.123,-20.142
0.356,-0.436,-1.060,-47.119,-16.052,-27.161
0.311,-0.398,-1.049,-58.655,-18.921,-34.058
0.245,-0.353,-1.015,-68.542,-20.386,-38.757
0.177,-0.330,-1.017,-72.815,-21.118,-39.001
0.132,-0.331,-1.061,-74.646,-19.653,-34.363
0.108,-0.327,-1.104,-79.956,-14.954,-26.245
0.102,-0.320,-1.135,-90.027,-7.812,-17.212
0.122,-0.312,-1.140,-102.478,-1.465,-9.155
0.157,-0.302,-1.134,-115.662,2.441,-4.150
0.205,-0.284,-1.136,-129.089,2.319,-2.869
0.247,-0.276,-1.144,-143.616,-1.221,-6.531
0.264,-0.275,-1.137,-160.461,-4.883,-14.160
0.265,-0.269,-1.094,-179.077,-10.742,-22.705
0.272,-0.248,-1.028,-197.998,-17.029,-31.250
0.277,-0.250,-0.928,-214.722,-22.339,-40.100
0.240,-0.193,-0.822,-228.271,-27.100,-50.659
0.200,-0.219,-0.746,-233.948,-33.020,-57.495
0.186,-0.237,-0.698,-237.122,-39.978,-59.631
0.160,-0.227,-0.632,-244.507,-42.480,-60.608
-0.166,-0.736,2.264,248.901,-84.656,24.414
-0.207,-0.623,2.196,283.569,-71.899,38.696
-0.225,-0.568,2.100,317.078,-49.683,56.702
-0.238,-0.458,1.943,348.206,-28.687,69.031
-0.247,-0.343,1.708,381.958,-13.123,85.205
-0.194,-0.210,1.482,408.447,-6.042,101.379
-0.156,-0.081,1.297,429.077,-9.277,112.671
-0.131,0.113,1.127,451.782,-22.217,116.882
-0.121,0.208,0.932,479.736,-42.175,123.657
-0.054,0.300,0.737,506.042,-62.134,137.573
0.008,0.452,0.524,520.630,-73.547,148.621
0.074,0.552,0.220,522.888,-71.838,154.419
0.168,0.566,-0.078,510.132,-51.941,158.020
0.239,0.570,-0.303,482.544,-15.259,165.466
0.294,0.612,-0.442,446.777,23.193,172.913
0.399,0.660,-0.575,413.147,50.537,173.035
0.427,0.696,-0.763,386.597,64.636,168.152
0.402,0.736,-0.970,361.816,72.388,160.034
0.347,0.801,-1.193,337.036,82.520,155.396
0.318,0.865,-1.413,311.096,89.905,153.992
0.229,0.958,-1.719,283.325,89.722,148.865
0.125,1.052,-2.030,252.502,80.750,140.747
0.029,1.117,-2.320,213.623,75.073,132.141
-0.042,1.118,-2.541,166.809,77.393,123.718
-0.039,1.075,-2.658,115.601,72.998,114.502
0.049,0.955,-2.606,64.880,61.829,100.342
0.154,0.744,-2.368,16.663,47.485,79.590
0.268,0.484,-1.998,-24.414,33.997,52.368
0.364,0.194,-1.559,-56.030,20.142,26.062
0.408,-0.098,-1.118,-76.172,7.996,4.272
0.418,-0.369,-0.741,-82.764,0.610,-11.536
0.467,-0.639,-0.462,-77.820,-5.310,-18.616
0.508,-0.826,-0.240,-68.420,-8.423,-21.606
0.493,-0.938,-0.103,-55.176,-4.822,-22.400
0.452,-0.969,-0.093,-36.438,-2.258,-21.362
0.392,-0.928,-0.204,-14.832,-1.465,-16.968
0.355,-0.841,-0.402,4.150,-0.916,-9.949
0.297,-0.754,-0.620,17.029,2.747,-6.165
0.254,-0.637,-0.823,22.644,3.967,-2.869
0.234,-0.529,-0.974,21.301,1.709,0.977
0.285,-0.456,-1.072,14.587,0.671,0.671
0.306,-0.382,-1.117,6.104,0.305,-4.395
0.333,-0.381,-1.116,-0.732,-3.723,-10.437
0.360,-0.401,-1.081,-6.531,-9.460,-14.587
0.377,-0.438,-1.010,-15.320,-12.329,-17.334
0.378,-0.481,-0.878,-25.208,-12.329,-18.127
0.361,-0.502,-0.739,-29.907,-8.484,-13.733
0.343,-0.561,-0.661,-28.503,-2.014,-8.972
0.347,-0.614,-0.637,-23.437,3.052,-3.357
0.367,-0.631,-0.627,-19.531,5.310,3.662
0.385,-0.642,-0.611,-16.663,8.667,9.277
0.421,-0.625,-0.620,-14.160,11.169,11.414
0.462,-0.599,-0.654,-10.437,9.277,8.911
0.456,-0.588,-0.724,-5.920,4.089,1.404
0.407,-0.562,-0.805,-4.150,-2.502,-6.104
0.375,-0.537,-0.871,-6.287,-7.874,-10.193
0.356,-0.490,-0.901,-11.047,-9.949,-12.573
0.338,-0.476,-0.890,-16.418,-9.827,-16.052
0.325,-0.479,-0.887,-19.775,-9.277,-19.226
0.308,-0.475,-0.880,-22.949,-9.766,-19.958
0.285,-0.478,-0.880,-25.940,-9.521,-18.372
0.269,-0.492,-0.864,-29.053,-6.714,-15.137
0.267,-0.512,-0.841,-32.166,-3.052,-10.986
0.280,-0.523,-0.826,-35.217,0.244,-6.775
0.313,-0.521,-0.816,-37.537,1.648,-3.540
0.343,-0.517,-0.828,-39.246,0.549,-3.967
0.350,-0.521,-0.857,-40.527,-2.930,-7.812
0.338,-0.512,-0.894,-43.701,-7.751,-13.000
0.329,-0.484,-0.935,-48.523,-12.756,-18.250
0.318,-0.450,-0.954,-54.626,-14.343,-24.170
0.280,-0.433,-0.976,-60.974,-12.756,-30.518
0.246,-0.414,-0.995,-66.040,-15.015,-34.912
0.220,-0.385,-1.026,-71.045,-19.348,-36.194
0.187,-0.369,-1.038,-77.454,-20.264,-35.950
0.154,-0.361,-1.039,-85.754,-16.174,-34.851
0.148,-0.372,-1.035,-93.933,-13.794,-31.250
0.169,-0.308,-1.048,-104.675,-14.526,-27.527
0.172,-0.335,-1.054,-109.253,-13.977,-20.996
0.190,-0.337,-1.055,-118.530,-14.404,-19.226
0.215,-0.334,-1.049,-130.859,-14.404,-19.104
0.242,-0.306,-1.025,-144.714,-14.221,-20.142
0.239,-0.324,-0.973,-158.691,-14.709,-24.109
0.250,-0.294,-0.934,-171.692,-17.822,-30.518
0.237,-0.308,-0.874,-181.396,-23.926,-35.706
0.234,-0.306,-0.814,-190.918,-29.541,-40.344
0.211,-0.302,-0.750,-199.524,-34.302,-45.654
0.208,-0.309,-0.729,-207.581,-36.560,-49.438
0.212,-0.315,-0.712,-218.201,-37.048,-52.063
0.194,-0.318,-0.664,-232.666,-34.424,-55.298
0.177,-0.312,-0.602,-249.390,-31.311,-56.946
0.171,-0.299,-0.540,-265.869,-29.419,-56.519
0.159,-0.286,-0.452,-281.555,-27.466,-55.725
0.160,-0.268,-0.347,-296.753,-24.109,-54.321
0.176,-0.245,-0.255,-309.631,-20.996,-53.894
0.171,-0.248,-0.162,-319.031,-19.897,-55.298
0.150,-0.246,-0.010,-327.637,-19.104,-55.603
0.172,-0.243,0.171,-334.290,-18.127,-53.894
0.229,-0.236,0.319,-336.121,-20.752,-52.429
0.274,-0.222,0.435,-335.083,-23.804,-57.495
0.287,-0.224,0.525,-334.839,-23.132,-69.946
0.067,-0.813,2.788,178.589,-3.296,38.025
0.042,-0.739,2.955,230.469,-9.155,47.180
0.006,-0.646,2.761,299.622,0.916,54.016
-0.057,-0.649,2.456,359.375,31.067,60.181
-0.040,-0.624,2.224,391.602,69.824,69.275
0.044,-0.554,2.113,407.654,95.032,79.529
0.073,-0.375,1.960,427.979,101.318,83.923
0.075,-0.174,1.682,456.482,94.421,82.397
0.106,-0.018,1.288,483.826,80.444,81.970
0.149,0.174,0.893,492.615,67.505,78.369
0.128,0.246,0.639,486.633,62.073,68.481
0.093,0.382,0.430,476.318,55.603,56.946
0.110,0.486,0.241,467.590,34.729,46.936
0.172,0.517,0.135,458.984,11.902,38.391
0.118,0.616,0.059,446.167,-1.038,31.494
0.089,0.689,-0.072,435.547,-8.667,29.236
0.086,0.709,-0.254,426.208,-9.094,34.546
0.086,0.729,-0.460,413.086,-2.686,43.457
0.078,0.777,-0.701,396.118,6.470,52.429
0.069,0.833,-1.041,377.502,13.672,59.326
0.052,0.880,-1.412,353.577,23.743,66.895
0.010,0.966,-1.771,318.542,39.978,73.120
-0.035,1.118,-2.083,277.771,55.542,78.064
-0.118,1.286,-2.386,239.136,59.998,80.444
-0.204,1.359,-2.712,203.552,50.781,76.904
-0.244,1.352,-2.973,164.978,31.189,70.984
-0.217,1.201,-3.011,118.713,14.099,70.190
-0.131,0.926,-2.774,64.941,8.789,68.115
0.066,0.590,-2.385,9.216,7.019,58.716
0.223,0.245,-1.827,-42.297,9.521,40.344
0.356,-0.118,-1.257,-77.515,14.221,18.982
0.491,-0.478,-0.747,-91.064,10.071,-0.122
0.575,-0.733,-0.298,-94.910,-6.531,-18.921
0.536,-0.911,0.036,-84.961,-16.541,-31.799
0.448,-0.991,0.139,-60.242,-19.714,-39.307
0.350,-1.036,-0.003,-27.893,-23.193,-37.292
0.284,-1.001,-0.256,-2.258,-19.592,-26.367
0.231,-0.890,-0.498,9.583,-9.460,-16.724
0.203,-0.767,-0.707,14.648,-1.648,-9.399
0.199,-0.640,-0.878,15.747,-1.404,-5.310
0.209,-0.551,-1.008,14.832,-5.981,-4.517
0.211,-0.502,-1.100,11.292,-11.780,-6.409
0.255,-0.447,-1.137,3.540,-17.944,-9.888
0.299,-0.473,-1.104,-4.578,-21.057,-12.817
0.332,-0.501,-0.995,-14.099,-21.057,-14.221
0.348,-0.506,-0.818,-22.827,-20.630,-15.869
0.359,-0.567,-0.711,-22.522,-17.822,-15.015
0.374,-0.638,-0.667,-17.944,-15.930,-9.521
0.386,-0.681,-0.645,-16.296,-11.536,-2.930
0.394,-0.697,-0.625,-16.846,-5.249,2.625
0.444,-0.698,-0.583,-16.968,-0.366,6.592
0.462,-0.673,-0.547,-15.259,2.869,6.104
0.442,-0.668,-0.586,-9.338,2.441,0.854
0.392,-0.644,-0.666,-2.258,-2.686,-2.747
0.331,-0.614,-0.752,0.793,-5.737,-4.333
0.275,-0.591,-0.817,-0.244,-4.639,-3.845
0.248,-0.509,-0.870,-4.333,-2.563,-1.587
0.284,-0.499,-0.861,-8.972,-0.671,1.831
0.320,-0.519,-0.845,-11.902,-0.244,0.122
0.323,-0.515,-0.823,-14.587,-3.906,-4.883
0.319,-0.527,-0.828,-15.564,-9.705,-7.874
0.308,-0.547,-0.846,-16.846,-11.780,-9.216
0.293,-0.555,-0.856,-20.630,-10.925,-8.972
0.275,-0.558,-0.851,-25.452,-9.460,-7.751
0.258,-0.554,-0.848,-30.090,-7.446,-6.287
0.255,-0.552,-0.840,-34.119,-7.629,-4.456
0.274,-0.554,-0.810,-36.621,-9.888,-2.441
0.281,-0.555,-0.775,-38.269,-9.277,-3.174
0.266,-0.573,-0.773,-37.903,-6.897,-4.883
0.261,-0.589,-0.785,-36.255,-9.094,-4.150
0.288,-0.601,-0.778,-37.048,-10.681,-2.625
0.332,-0.591,-0.749,-40.161,-9.827,-2.319
0.363,-0.590,-0.725,-42.542,-8.179,-6.897
0.367,-0.601,-0.734,-41.931,-10.193,-14.099
0.354,-0.589,-0.757,-40.283,-18.616,-19.409
0.331,-0.580,-0.809,-39.917,-25.635,-24.231
0.292,-0.572,-0.863,-42.603,-27.466,-27.588
0.251,-0.578,-0.885,-49.377,-25.574,-29.297
0.248,-0.485,-0.908,-58.716,-23.743,-30.396
0.238,-0.503,-0.943,-62.744,-20.752,-25.757
0.245,-0.486,-0.957,-70.435,-17.334,-21.729
0.271,-0.457,-0.938,-79.956,-14.709,-20.325
0.289,-0.461,-0.910,-86.975,-12.329,-20.813
0.295,-0.463,-0.876,-92.834,-13.916,-23.254
0.299,-0.473,-0.849,-97.107,-19.104,-26.245
0.298,-0.468,-0.834,-100.464,-24.902,-28.809
0.296,-0.469,-0.855,-103.699,-28.809,-31.006
0.306,-0.477,-0.891,-110.901,-28.381,-33.447
0.277,-0.485,-0.892,-124.451,-21.118,-36.499
0.263,-0.477,-0.864,-139.832,-12.939,-36.194
0.259,-0.458,-0.814,-153.564,-9.399,-34.058
0.260,-0.437,-0.765,-163.696,-8.362,-33.508
0.258,-0.436,-0.739,-169.922,-10.681,-34.668
0.257,-0.423,-0.725,-176.208,-15.808,-35.706
0.272,-0.434,-0.753,-183.411,-21.301,-37.476
0.291,-0.410,-0.766,-197.815,-23.193,-44.128
0.250,-0.336,-0.710,-218.445,-20.508,-50.232
0.245,-0.379,-0.635,-231.323,-16.968,-51.392
0.239,-0.354,-0.564,-244.995,-18.860,-55.847
0.193,-0.326,-0.459,-256.409,-22.644,-59.937
-0.113,-0.820,2.448,193.604,-66.467,15.442
-0.165,-0.790,2.542,232.361,-53.955,30.212
-0.209,-0.726,2.670,272.339,-29.114,46.570
-0.278,-0.618,2.786,321.106,3.540,65.002
-0.295,-0.490,2.774,381.958,39.612,86.731
-0.282,-0.343,2.621,447.632,76.721,111.267
-0.185,-0.211,2.330,502.380,107.361,129.272
-0.106,-0.079,1.925,540.161,120.422,138.062
-0.015,0.018,1.502,560.791,118.042,136.597
0.050,0.068,1.144,564.148,108.643,127.502
0.092,0.237,0.867,550.110,91.187,113.770
0.106,0.407,0.619,534.119,72.144,96.985
0.150,0.506,0.405,520.020,52.246,79.041
0.175,0.622,0.225,503.723,31.860,67.200
0.170,0.784,0.028,485.535,13.794,56.946
0.142,0.943,-0.189,466.919,1.343,50.598
0.134,1.062,-0.472,448.486,-0.244,53.528
0.121,1.145,-0.771,423.767,7.935,60.852
0.104,1.254,-1.107,395.630,23.315,69.702
0.074,1.373,-1.458,365.051,37.231,77.515
0.049,1.558,-1.893,332.153,42.175,78.613
0.010,1.705,-2.350,296.936,33.569,77.271
-0.120,1.817,-2.817,254.395,21.484,74.097
-0.186,1.848,-3.155,203.308,8.423,70.618
-0.193,1.735,-3.296,145.752,-0.671,69.641
-0.154,1.447,-3.145,81.421,-2.747,70.313
-0.040,1.029,-2.738,15.198,1.892,71.045
0.139,0.599,-2.149,-47.058,12.024,65.918
0.312,0.234,-1.511,-93.750,23.193,58.533
0.543,-0.211,-0.926,-114.563,25.879,49.622
0.737,-0.594,-0.394,-119.202,16.785,29.541
0.813,-0.873,0.012,-110.718,6.287,3.967
0.768,-1.038,0.229,-89.050,-5.798,-17.700
0.651,-1.106,0.197,-56.519,-17.029,-31.677
0.497,-1.136,0.006,-22.095,-23.682,-33.875
0.361,-1.076,-0.231,0.916,-22.034,-28.381
0.255,-0.940,-0.451,12.878,-15.320,-20.325
0.197,-0.808,-0.673,19.714,-7.568,-11.780
0.175,-0.682,-0.855,22.095,-4.028,-5.737
0.162,-0.572,-0.995,19.897,-5.310,-3.784
0.174,-0.502,-1.074,15.930,-10.437,-4.883
0.227,-0.430,-1.108,9.033,-17.700,-10.315
0.236,-0.445,-1.087,3.113,-19.958,-14.404
0.265,-0.473,-1.036,-5.859,-21.057,-13.428
0.310,-0.448,-0.959,-16.602,-21.729,-11.536
0.339,-0.450,-0.886,-22.278,-19.287,-4.761
0.440,-0.517,-0.828,-24.841,-15.991,0.244
0.552,-0.596,-0.717,-29.419,-13.489,1.221
0.579,-0.629,-0.594,-33.875,-10.498,-1.160
0.579,-0.660,-0.541,-32.410,-10.376,-5.737
