aX,aY,aZ,gX,gY,gZ
-0.126,-1.446,1.995,-46.143,66.223,-18.066
-0.225,-1.556,2.047,-39.856,75.745,-34.607
-0.326,-1.629,2.056,-24.963,90.637,-53.894
-0.344,-1.645,2.002,-7.507,107.117,-70.557
-0.265,-1.588,1.873,5.310,117.676,-81.299
-0.127,-1.436,1.704,15.015,115.967,-84.778
0.108,-1.161,1.506,20.386,103.394,-82.214
0.328,-0.805,1.337,16.846,84.045,-79.529
0.411,-0.433,1.251,15.503,61.768,-76.538
0.573,-0.118,1.093,27.893,40.833,-64.636
0.798,0.230,0.772,50.049,19.714,-40.039
0.940,0.767,0.317,65.063,0.732,-13.855
1.019,1.200,-0.057,63.843,-12.024,-0.549
1.184,1.587,-0.349,44.983,-14.771,2.014
1.229,2.075,-0.529,9.766,-17.334,-7.812
1.151,2.544,-0.565,-32.898,-18.372,-36.377
1.006,2.920,-0.455,-68.542,-19.409,-72.754
0.595,3.100,-0.252,-94.910,-33.508,-115.417
-0.025,3.029,-0.046,-116.821,-70.251,-166.992
-0.786,2.688,0.110,-135.925,-121.460,-208.618
-1.465,2.177,0.120,-149.170,-167.603,-214.600
-1.823,1.781,0.129,-150.269,-193.848,-174.683
-1.845,1.586,0.214,-138.733,-186.584,-103.760
-1.511,1.479,0.380,-112.427,-143.372,-23.865
-0.878,1.442,0.545,-80.139,-74.646,51.147
-0.153,1.531,0.629,-52.307,-1.404,109.680
0.451,1.636,0.648,-33.264,53.955,135.010
0.839,1.665,0.611,-18.921,78.552,131.226
0.997,1.489,0.602,-0.854,70.129,116.211
1.020,1.383,0.619,11.719,28.198,98.389
0.907,1.259,0.638,7.141,-3.845,108.643
0.806,1.090,0.662,0.732,-15.259,122.742
0.783,0.878,0.675,0.549,-19.287,130.859
0.815,0.728,0.681,11.597,-20.935,141.296
0.830,0.574,0.649,25.513,-18.982,147.766
0.829,0.452,0.615,36.255,-20.630,143.127
0.768,0.297,0.625,42.114,-24.170,128.906
0.668,0.137,0.640,39.185,-21.973,116.272
0.568,-0.012,0.690,39.368,-14.282,103.027
0.496,-0.081,0.765,41.016,-8.728,87.708
0.425,-0.103,0.814,40.771,-2.686,72.754
0.352,-0.147,0.867,44.312,1.526,57.373
0.283,-0.141,0.908,42.664,1.587,44.067
0.256,-0.142,0.916,35.278,-1.526,33.569
0.220,-0.143,0.944,23.865,-8.423,23.315
0.123,-0.140,1.004,12.512,-17.212,14.771
0.007,-0.159,1.063,4.089,-24.414,8.667
-0.070,-0.170,1.100,2.625,-27.649,5.676
-0.122,-0.146,1.103,5.859,-27.832,5.127
-0.170,-0.128,1.088,11.292,-26.062,3.052
-0.191,-0.121,1.066,15.686,-21.423,0.061
-0.201,-0.103,1.041,18.188,-14.526,-0.122
-0.187,-0.054,1.001,19.836,-7.874,-3.357
-0.174,-0.003,0.985,19.531,-3.906,-9.949
-0.169,0.059,0.990,17.456,0.793,-16.541
-0.169,0.104,1.016,13.672,9.521,-20.630
-0.176,0.137,1.072,9.277,19.287,-20.691
-0.156,0.138,1.135,8.606,24.048,-17.151
-0.187,0.155,1.150,14.587,24.475,-11.475
-0.167,0.173,1.138,21.179,21.606,-7.629
-0.141,0.170,1.155,30.212,16.113,-6.409
-0.123,0.187,1.141,31.250,9.338,-4.517
-0.114,0.197,1.127,25.818,4.517,-2.075
-0.101,0.217,1.117,19.287,2.808,-2.258
-0.109,0.184,1.140,12.695,2.502,-3.967
-0.088,0.167,1.181,13.733,0.488,-11.536
-0.078,0.173,1.118,13.672,-4.028,-15.259
-0.146,0.119,1.092,20.325,-5.981,-19.653
-0.093,0.185,0.977,20.569,-9.521,-30.762
-0.072,0.191,0.974,23.560,-8.850,-32.471
-0.066,0.220,0.980,20.996,-9.644,-28.931
-0.083,0.228,1.006,15.137,-5.737,-26.001
-0.118,0.212,1.016,8.606,-3.662,-21.240
-0.142,0.212,0.988,3.479,-4.272,-12.329
-0.127,0.225,0.991,-0.366,-6.409,-3.052
-0.114,0.230,1.016,-2.747,-9.644,4.089
-0.120,0.244,1.012,-4.639,-13.000,7.141
-0.115,0.256,0.985,-4.822,-13.428,4.883
-0.107,0.274,0.956,-6.287,-11.169,1.831
-0.101,0.283,0.943,-7.874,-7.751,-1.221
-0.102,0.294,0.924,-9.888,-3.418,-4.395
-0.108,0.289,0.905,-12.939,2.441,-6.653
-0.112,0.271,0.896,-14.465,8.118,-7.935
-0.103,0.252,0.894,-13.733,10.498,-9.583
-0.090,0.259,0.901,-13.000,9.277,-10.010
-0.092,0.265,0.931,-12.085,7.019,-8.179
-0.104,0.266,0.943,-12.085,4.578,-6.897
-0.084,0.271,0.934,-13.428,3.723,-4.639
-0.056,0.299,0.929,-15.503,4.272,0.122
-0.051,0.323,0.953,-20.142,2.869,3.418
-0.060,0.334,0.962,-26.428,-0.061,4.211
-0.063,0.327,0.964,-29.663,-1.099,6.653
-0.061,0.336,0.954,-29.053,-1.099,5.859
-0.065,0.337,0.952,-28.381,-0.305,1.953
-0.060,0.331,0.937,-25.574,2.625,-2.075
-0.054,0.322,0.923,-21.667,7.019,-3.967
-0.061,0.322,0.924,-18.188,9.705,-4.150
-0.068,0.339,0.926,-13.855,9.094,-5.493
-0.080,0.350,0.926,-10.986,5.188,-6.409
-0.090,0.357,0.925,-8.179,0.793,-5.066
-0.195,-1.063,1.895,-40.161,98.389,-64.209
-0.182,-1.090,1.822,-31.616,104.187,-81.543
-0.144,-1.008,1.729,-28.625,105.469,-97.046
-0.101,-0.816,1.682,-30.029,103.760,-107.117
-0.057,-0.602,1.690,-33.691,102.478,-106.201
0.016,-0.424,1.660,-27.649,99.731,-89.050
0.184,-0.186,1.483,-5.127,87.158,-56.519
0.343,0.134,1.174,24.353,56.335,-14.282
0.592,0.460,0.739,47.424,13.916,30.884
0.876,0.784,0.333,64.880,-30.640,73.425
1.062,1.148,0.041,90.759,-77.637,100.281
1.164,1.533,-0.209,116.577,-113.403,103.882
1.125,1.890,-0.476,133.118,-123.779,86.243
0.922,2.383,-0.719,125.854,-106.445,47.668
0.644,2.740,-0.812,75.439,-78.125,-5.676
0.310,2.797,-0.607,6.348,-57.983,-63.110
-0.266,2.582,-0.309,-53.955,-57.983,-117.126
-0.852,2.316,-0.031,-85.083,-72.327,-148.682
-1.257,2.156,0.183,-92.590,-84.656,-132.446
-1.385,1.975,0.423,-97.595,-89.600,-85.144
-1.286,1.767,0.639,-93.079,-86.975,-33.081
-0.940,1.638,0.738,-69.458,-74.463,13.123
-0.416,1.596,0.725,-37.415,-51.331,50.598
0.005,1.517,0.664,-12.817,-26.917,67.322
0.370,1.438,0.526,1.038,-21.118,54.749
0.496,1.344,0.390,3.418,-9.399,49.988
0.546,1.252,0.277,3.723,-0.366,44.312
0.606,1.176,0.207,2.930,0.916,34.790
0.605,1.109,0.191,-1.465,0.427,32.776
0.529,1.050,0.227,-8.728,-2.380,33.569
0.387,0.909,0.358,-13.977,-9.216,36.011
0.273,0.740,0.501,-12.878,-12.146,47.974
0.289,0.668,0.590,-2.441,-10.681,70.679
0.350,0.612,0.637,8.606,-12.695,88.196
0.334,0.519,0.684,15.503,-20.935,91.125
0.300,0.430,0.737,21.606,-29.114,84.778
0.280,0.350,0.764,29.114,-30.762,79.468
0.251,0.270,0.781,33.752,-27.100,72.327
0.235,0.236,0.802,35.400,-21.912,60.486
0.175,0.200,0.845,31.006,-16.602,47.974
0.103,0.150,0.875,24.109,-12.878,36.804
0.066,0.116,0.881,18.860,-10.620,29.663
0.029,0.084,0.891,15.564,-10.315,25.269
-0.016,0.044,0.916,11.108,-14.771,20.691
-0.062,0.016,0.955,7.690,-20.874,18.860
-0.079,0.021,0.973,7.751,-26.733,19.348
-0.071,0.040,1.005,11.230,-31.799,18.677
-0.085,0.055,1.026,12.817,-33.447,19.653
-0.104,0.077,1.033,14.160,-29.663,17.334
-0.133,0.123,1.047,16.846,-22.400,9.216
-0.162,0.142,1.053,23.132,-12.268,-0.305
-0.172,0.156,1.047,25.757,-1.404,-8.789
-0.187,0.155,1.041,22.156,6.165,-16.357
-0.220,0.116,1.054,15.198,9.033,-21.973
-0.239,0.075,1.062,8.545,8.240,-23.499
-0.234,0.067,1.076,2.258,4.150,-18.494
-0.218,0.093,1.090,-0.061,-1.038,-12.207
-0.197,0.139,1.105,-0.305,-5.249,-7.324
-0.182,0.175,1.121,-1.892,-6.958,-5.493
-0.181,0.210,1.146,-2.502,-6.165,-6.897
-0.186,0.265,1.211,0.183,-3.113,-10.132
-0.206,0.297,1.240,1.892,5.859,-14.099
-0.193,0.295,1.238,5.432,15.320,-18.616
-0.197,0.296,1.220,10.742,19.287,-20.630
-0.209,0.328,1.187,17.639,19.043,-20.386
-0.217,0.339,1.125,20.752,17.761,-19.836
-0.212,0.320,1.080,20.630,16.663,-17.883
-0.201,0.335,1.046,18.066,13.367,-14.465
-0.177,0.348,1.026,13.977,7.690,-10.681
-0.154,0.340,0.997,7.446,2.441,-8.240
-0.143,0.329,1.000,0.732,-1.526,-7.080
-0.140,0.341,1.005,-4.028,-4.883,-5.615
-0.147,0.346,1.024,-5.981,-6.714,-3.967
-0.160,0.339,1.045,-6.592,-6.897,-1.526
-0.165,0.333,1.049,-4.395,-5.432,2.747
-0.146,0.331,1.019,2.319,-3.418,5.615
-0.131,0.346,0.988,8.301,-3.479,7.629
-0.113,0.368,0.956,11.475,-4.517,9.216
-0.102,0.371,0.928,11.047,-5.493,9.399
-0.091,0.370,0.906,9.155,-6.653,8.179
-0.085,0.376,0.888,6.104,-7.324,7.507
-0.074,0.391,0.888,2.441,-6.409,5.676
-0.077,0.396,0.884,-2.075,-4.028,2.991
-0.080,0.379,0.894,-5.859,-1.038,0.366
-0.090,0.378,0.899,-8.545,1.587,-2.075
-0.097,0.381,0.907,-9.216,2.197,-3.296
-0.118,0.394,0.915,-7.263,2.136,-2.930
-0.141,0.397,0.924,-4.150,2.502,-2.014
-0.143,0.394,0.923,0.183,3.113,0.183
-0.124,0.398,0.910,5.371,2.808,3.235
-0.111,0.410,0.894,9.644,1.038,5.127
-0.097,0.422,0.870,12.390,-1.343,5.432
-0.084,0.414,0.849,12.024,-2.991,4.639
-0.078,0.405,0.840,10.193,-3.174,3.601
-0.076,0.406,0.828,7.568,-2.991,2.808
-0.076,0.392,0.827,2.808,-1.465,1.953
-0.080,0.383,0.836,-1.770,0.610,1.404
-0.077,0.405,0.845,-4.272,2.808,1.343
-0.078,0.408,0.854,-7.507,4.333,0.732
-0.086,0.397,0.875,-9.216,4.700,-0.610
-0.292,-0.879,1.982,-16.663,108.276,-88.867
-0.292,-0.876,1.909,3.784,117.432,-95.459
-0.216,-0.872,1.768,13.367,117.737,-94.788
-0.105,-0.824,1.613,10.132,106.201,-89.294
-0.029,-0.687,1.472,-2.197,84.045,-81.482
0.023,-0.513,1.420,-16.052,59.692,-72.205
0.115,-0.307,1.401,-21.179,39.368,-57.190
0.243,-0.057,1.312,-12.024,23.682,-34.668
0.380,0.220,1.107,11.414,9.766,-8.911
0.526,0.517,0.787,41.626,-3.967,19.470
0.682,0.859,0.401,69.397,-18.860,47.913
0.758,1.176,0.071,89.417,-34.363,69.763
0.690,1.531,-0.208,107.971,-48.828,79.529
0.661,2.004,-0.544,117.004,-47.913,84.717
0.557,2.465,-0.758,91.187,-45.044,73.608
0.405,2.601,-0.649,32.288,-63.171,28.503
0.088,2.562,-0.319,-27.832,-96.924,-33.142
-0.346,2.572,0.031,-60.547,-116.638,-83.862
-0.806,2.496,0.319,-78.796,-108.582,-118.896
-1.180,2.238,0.553,-85.510,-78.735,-127.747
-1.311,1.957,0.665,-78.552,-47.546,-104.187
-1.149,1.755,0.656,-59.570,-31.372,-58.350
-0.775,1.634,0.574,-37.170,-29.602,-10.986
-0.356,1.558,0.528,-17.273,-38.208,17.151
0.088,1.519,0.414,-10.193,-43.396,28.564
0.365,1.430,0.312,-21.484,-22.644,44.067
0.550,1.301,0.259,-35.583,-2.380,37.842
0.661,1.194,0.231,-41.809,6.531,19.348
0.654,1.160,0.209,-44.128,11.230,8.789
0.584,1.130,0.221,-46.997,10.559,4.456
0.457,1.066,0.290,-49.927,4.089,2.686
0.324,0.931,0.442,-48.462,0.183,10.681
0.286,0.823,0.551,-37.720,1.892,30.090
0.327,0.771,0.612,-23.254,3.845,52.734
0.358,0.682,0.681,-12.878,-1.038,65.918
0.370,0.579,0.752,-4.761,-8.301,68.726
0.387,0.482,0.809,1.953,-13.000,64.758
0.386,0.423,0.839,5.981,-14.038,54.932
0.323,0.378,0.859,8.301,-11.108,40.344
0.217,0.304,0.886,10.437,-2.930,24.841
0.123,0.215,0.897,13.306,9.583,13.367
0.063,0.161,0.902,18.616,20.508,8.606
0.038,0.125,0.897,25.208,22.766,8.545
0.017,0.087,0.876,22.949,15.259,8.911
-0.073,0.057,0.910,15.503,-0.427,9.644
-0.174,0.029,0.965,12.634,-14.832,12.756
-0.202,0.014,1.012,13.611,-23.193,17.517
-0.203,0.020,1.051,17.944,-26.001,25.818
-0.180,0.039,1.066,25.208,-26.184,30.518
-0.144,0.045,1.057,31.311,-27.222,27.161
-0.109,0.058,1.048,36.072,-29.846,17.822
-0.105,0.100,1.055,41.382,-30.823,9.216
-0.146,0.124,1.051,43.457,-26.978,2.075
-0.170,0.127,1.048,38.147,-19.714,-4.883
-0.191,0.125,1.054,32.227,-13.855,-8.606
-0.212,0.137,1.048,28.320,-11.658,-8.789
-0.241,0.155,1.039,22.522,-12.634,-7.385
-0.276,0.158,1.061,15.686,-14.221,-4.578
-0.280,0.175,1.075,12.268,-14.404,0.305
-0.261,0.223,1.074,11.719,-15.076,5.127
-0.252,0.250,1.084,10.925,-16.846,6.348
-0.218,0.267,1.086,11.536,-18.066,4.578
-0.189,0.302,1.082,14.465,-19.409,2.136
-0.199,0.342,1.087,20.447,-21.118,-1.770
-0.214,0.362,1.075,27.588,-19.104,-7.690
-0.235,0.375,1.077,32.288,-13.184,-13.123
-0.276,0.387,1.076,37.659,-6.348,-18.188
-0.276,0.384,1.052,42.053,1.709,-19.470
-0.276,0.382,1.023,43.823,7.507,-17.578
-0.269,0.399,0.983,42.603,8.301,-16.968
-0.262,0.398,0.955,37.720,6.836,-17.090
-0.246,0.390,0.943,30.701,5.066,-15.686
-0.228,0.397,0.952,23.987,3.845,-13.428
-0.192,0.409,0.954,18.494,4.578,-11.719
-0.160,0.409,0.966,10.742,5.249,-8.850
-0.144,0.388,0.986,3.723,4.089,-7.019
-0.125,0.370,1.004,0.122,1.221,-6.287
-0.115,0.358,1.011,-0.427,-2.319,-5.127
-0.115,0.347,1.022,0.854,-5.920,-4.456
-0.113,0.343,1.017,3.784,-8.728,-4.150
-0.103,0.322,1.001,5.920,-8.972,-3.357
-0.090,0.298,0.979,7.324,-7.446,-3.174
-0.080,0.281,0.947,9.216,-5.493,-3.784
-0.059,0.281,0.914,10.498,-3.052,-4.761
-0.035,0.285,0.879,8.850,0.488,-5.615
-0.021,0.286,0.861,4.089,3.784,-7.202
-0.025,0.300,0.870,0.793,6.409,-9.827
-0.049,0.316,0.896,0.671,9.644,-12.329
-0.082,0.338,0.930,-1.404,13.367,-14.465
-0.115,0.330,0.966,-0.671,18.372,-14.526
-0.110,0.329,0.964,2.502,21.973,-10.925
-0.089,0.330,0.941,7.751,20.142,-6.042
-0.078,0.326,0.933,10.986,11.902,-2.197
-0.057,0.347,0.913,10.620,1.099,2.502
-0.031,0.356,0.903,8.728,-7.263,7.324
-0.011,0.345,0.895,6.470,-12.512,9.949
0.007,0.347,0.889,4.456,-13.855,11.047
0.020,0.352,0.882,2.686,-11.719,10.498
0.025,0.351,0.870,-0.671,-8.057,8.179
0.016,0.356,0.881,-4.333,-3.906,4.333
1.050,2.381,-0.782,62.256,-81.055,35.095
0.964,2.549,-0.723,5.310,-85.144,-17.700
0.499,2.515,-0.449,-51.270,-102.661,-91.797
-0.193,2.452,-0.190,-88.562,-113.525,-155.823
-0.846,2.327,0.093,-108.704,-100.769,-181.885
-1.261,2.133,0.407,-115.173,-67.749,-164.551
-1.371,1.916,0.690,-106.934,-29.358,-116.882
-1.138,1.758,0.865,-83.069,-0.305,-54.993
-0.760,1.657,0.959,-51.208,15.930,7.874
-0.184,1.604,0.994,-20.630,6.287,49.561
0.267,1.578,0.913,-4.272,0.244,77.942
0.479,1.505,0.785,-0.610,2.747,94.788
0.569,1.406,0.612,5.920,-0.854,86.121
0.579,1.359,0.423,15.015,-4.456,78.613
0.566,1.280,0.273,15.381,-6.287,76.538
0.562,1.174,0.238,8.301,-9.399,74.951
0.558,1.057,0.274,0.732,-13.611,76.355
0.558,0.925,0.370,-6.775,-15.625,79.590
0.522,0.780,0.499,-15.015,-15.381,81.360
0.517,0.629,0.646,-18.616,-12.756,81.116
0.472,0.537,0.758,-17.944,-9.705,75.195
0.372,0.445,0.871,-13.733,-5.920,63.171
0.254,0.366,0.947,-6.409,2.197,50.781
0.167,0.292,0.997,1.343,14.404,41.565
0.122,0.255,1.022,8.240,22.888,35.828
0.090,0.270,1.019,14.832,26.001,32.898
0.061,0.238,1.002,16.846,24.292,29.541
0.026,0.180,1.005,14.832,17.700,24.719
-0.020,0.167,1.013,12.939,8.484,22.095
-0.063,0.155,1.016,12.512,-0.061,20.447
-0.111,0.139,1.016,10.437,-4.944,20.325
-0.151,0.124,1.028,10.620,-7.568,20.142
-0.159,0.115,1.033,10.803,-10.986,19.958
-0.182,0.128,1.054,11.292,-14.099,22.217
-0.195,0.148,1.060,14.221,-15.930,23.865
-0.204,0.166,1.049,19.836,-17.517,22.705
-0.192,0.173,1.032,28.625,-19.165,17.883
-0.191,0.189,1.012,35.645,-19.836,10.864
-0.185,0.236,0.976,39.673,-18.921,5.249
-0.167,0.285,0.934,41.504,-15.137,1.343
-0.170,0.295,0.903,38.940,-10.559,-3.845
-0.184,0.289,0.884,35.889,-6.042,-9.460
-0.213,0.285,0.874,33.569,-1.343,-11.963
-0.232,0.277,0.887,29.541,3.357,-11.597
-0.242,0.281,0.914,25.269,5.005,-8.179
-0.240,0.286,0.926,22.278,1.770,-3.418
-0.217,0.306,0.939,20.630,-4.211,1.648
-0.174,0.309,0.941,18.372,-10.132,7.080
-0.146,0.340,0.953,16.724,-16.052,11.414
-0.130,0.368,0.959,16.296,-20.142,10.498
-0.108,0.358,0.961,14.648,-19.775,6.775
-0.083,0.373,0.967,12.756,-16.235,3.540
-0.082,0.386,0.966,12.329,-11.719,0.977
-0.089,0.363,0.960,11.597,-8.972,-2.625
-0.078,0.369,0.955,11.108,-8.667,-5.005
-0.093,0.383,0.948,10.437,-9.766,-6.714
-0.135,0.367,0.946,7.690,-10.925,-9.583
-0.181,0.368,0.958,5.371,-11.169,-10.315
-0.214,0.365,0.962,8.179,-8.240,-10.803
-0.235,0.372,0.962,12.085,-4.395,-9.155
-0.242,0.369,0.952,16.174,-2.197,-3.967
-0.214,0.369,0.927,19.531,-2.136,1.709
-0.190,0.394,0.911,21.973,-5.005,5.859
-0.158,0.404,0.900,20.935,-8.789,7.751
-0.140,0.400,0.906,16.113,-10.742,7.751
-0.126,0.380,0.904,9.644,-10.864,6.104
-0.106,0.341,0.910,3.662,-9.216,3.967
-0.102,0.322,0.908,-1.099,-7.690,2.319
-0.100,0.328,0.905,-3.479,-5.981,-0.916
-0.116,0.330,0.905,-5.066,-4.333,-4.395
-0.135,0.351,0.907,-6.348,-2.014,-7.080
-0.175,0.377,0.926,-5.066,0.488,-9.338
-0.212,0.408,0.942,-0.061,4.089,-10.010
-0.218,0.435,0.940,6.592,8.545,-9.399
-0.222,0.462,0.925,12.085,9.827,-7.751
-0.213,0.461,0.892,14.221,8.179,-6.165
-0.201,0.438,0.865,13.428,5.127,-3.967
-0.187,0.418,0.842,12.085,2.075,-0.610
-0.169,0.401,0.825,8.911,-1.099,2.747
-0.147,0.372,0.811,3.235,-5.310,4.944
-0.134,0.343,0.807,-3.601,-10.132,6.836
-0.118,0.345,0.822,-8.545,-13.367,8.850
-0.116,0.352,0.844,-12.878,-15.015,9.521
-0.123,0.343,0.871,-15.564,-14.099,9.155
-0.129,0.347,0.895,-15.198,-11.047,8.057
-0.145,0.361,0.924,-11.841,-6.958,6.775
-0.156,0.378,0.948,-6.165,-2.319,5.737
-0.146,0.394,0.947,-0.122,1.099,5.310
-0.136,0.403,0.936,4.150,2.441,5.310
-0.130,0.404,0.932,7.019,2.136,5.432
-0.119,0.415,0.932,7.935,0.305,5.554
-0.103,0.422,0.934,7.690,-1.465,5.676
-0.095,0.413,0.927,5.737,-2.258,5.127
-0.096,0.388,0.931,2.991,-3.235,4.395
-0.089,0.381,0.931,1.099,-3.967,3.845
-0.089,0.370,0.935,-0.671,-4.150,3.296
-0.096,0.356,0.943,-1.465,-4.333,1.953
-0.100,0.355,0.948,-1.160,-3.845,1.099
-0.102,0.377,0.958,-0.427,-2.991,0.793
-0.118,0.386,0.957,0.305,-2.441,0.244
0.670,2.231,-0.515,79.041,-66.528,47.607
0.554,2.449,-0.555,60.120,-58.350,18.066
0.427,2.650,-0.519,26.917,-45.715,-11.292
0.318,2.707,-0.343,-18.799,-40.283,-50.354
-0.000,2.584,-0.044,-61.768,-43.884,-96.802
-0.426,2.337,0.275,-82.336,-54.626,-140.015
-0.817,2.058,0.448,-77.393,-59.082,-154.785
-0.980,1.820,0.442,-60.974,-54.810,-134.399
-0.959,1.636,0.412,-50.781,-47.607,-92.957
-0.762,1.459,0.471,-42.725,-46.143,-54.810
-0.477,1.357,0.514,-39.124,-39.246,-27.222
-0.211,1.273,0.587,-33.203,-7.996,5.493
0.085,1.196,0.627,-28.076,22.217,16.235
0.319,1.138,0.623,-22.034,43.213,7.446
0.406,1.080,0.585,-19.226,52.307,-8.606
0.427,0.999,0.555,-17.639,55.847,-22.339
0.425,0.961,0.542,-18.555,51.758,-27.283
0.379,0.901,0.604,-20.264,40.833,-27.100
0.303,0.793,0.676,-25.146,30.701,-18.860
0.231,0.647,0.729,-25.635,20.813,-2.502
0.211,0.568,0.738,-17.273,8.362,20.081
0.223,0.517,0.710,-7.507,-7.690,43.274
0.242,0.479,0.680,-2.014,-27.771,58.411
0.252,0.462,0.664,1.343,-47.424,63.538
0.250,0.426,0.665,2.991,-58.899,61.157
0.232,0.390,0.673,1.709,-61.584,52.246
0.190,0.371,0.692,1.038,-57.251,40.039
0.123,0.383,0.735,1.648,-48.157,28.442
0.040,0.403,0.789,2.747,-35.950,20.020
-0.017,0.401,0.848,5.127,-21.545,15.076
-0.047,0.396,0.886,9.766,-10.437,14.526
-0.113,0.382,0.895,12.756,-5.554,17.639
-0.170,0.350,0.889,15.686,-7.019,19.775
-0.188,0.341,0.869,21.545,-14.954,20.569
-0.219,0.365,0.840,30.884,-23.865,22.278
-0.217,0.397,0.798,39.551,-28.625,23.376
-0.178,0.438,0.776,45.410,-30.884,24.719
-0.131,0.493,0.749,48.096,-30.823,26.855
-0.070,0.522,0.724,46.021,-28.259,28.015
-0.047,0.528,0.726,38.574,-26.245,29.541
-0.045,0.486,0.794,31.189,-25.330,33.020
-0.050,0.466,0.858,21.973,-29.419,38.757
-0.043,0.433,0.904,22.217,-35.522,42.969
-0.050,0.391,0.923,23.804,-45.105,48.157
-0.071,0.360,0.927,30.029,-57.190,50.537
-0.089,0.322,0.905,42.175,-66.589,49.927
-0.070,0.294,0.851,53.223,-69.275,48.645
-0.041,0.296,0.781,57.312,-67.566,47.363
-0.025,0.297,0.749,57.251,-63.232,43.335
-0.001,0.269,0.717,51.331,-55.420,37.292
0.033,0.249,0.713,39.246,-45.349,29.724
0.023,0.261,0.793,25.024,-36.438,20.569
-0.039,0.239,0.920,10.742,-26.855,12.451
-0.079,0.215,1.027,2.319,-14.099,6.653
-0.098,0.256,1.117,1.953,-2.563,4.639
-0.143,0.283,1.170,6.592,6.409,3.479
-0.160,0.264,1.207,11.353,13.184,0.488
-0.180,0.286,1.203,16.724,15.625,-0.549
-0.200,0.319,1.185,23.621,16.479,-0.244
-0.196,0.346,1.124,27.832,17.944,-0.061
-0.182,0.344,1.050,27.039,19.897,0.977
-0.161,0.348,1.001,23.010,20.142,2.686
-0.148,0.329,0.966,16.663,18.982,4.883
-0.116,0.314,0.939,6.714,17.578,7.690
-0.067,0.327,0.936,-5.371,14.282,11.108
-0.030,0.352,0.960,-15.930,8.301,12.207
-0.026,0.381,1.014,-23.437,3.357,10.376
-0.052,0.377,1.088,-25.391,1.709,6.531
-0.055,0.383,1.140,-19.775,5.249,5.188
-0.073,0.409,1.169,-9.155,12.207,5.188
-0.085,0.412,1.180,1.709,18.372,0.488
-0.124,0.355,1.177,11.108,21.423,-4.089
-0.141,0.310,1.135,20.996,22.400,-5.371
-0.159,0.299,1.072,30.212,19.104,-3.967
-0.174,0.294,1.005,34.607,11.353,-1.770
-0.171,0.304,0.925,32.410,1.343,-0.122
-0.160,0.307,0.878,25.635,-7.690,1.038
-0.155,0.285,0.854,15.747,-15.625,0.488
-0.156,0.264,0.845,7.446,-21.118,-0.305
-0.173,0.271,0.850,4.028,-22.095,1.404
-0.199,0.304,0.881,3.174,-18.555,3.052
-0.220,0.315,0.924,2.380,-12.634,2.502
-0.223,0.329,0.951,4.150,-6.653,2.197
-0.206,0.334,0.953,8.057,-1.831,1.953
-0.209,0.350,0.943,11.841,0.122,-0.061
-0.230,0.333,0.922,12.939,-1.099,-2.808
-0.222,0.326,0.898,13.733,-2.808,-3.174
-0.216,0.329,0.870,12.634,-4.150,-0.793
-0.214,0.326,0.845,8.484,-5.737,1.526
-0.203,0.319,0.825,1.282,-7.507,2.197
-0.188,0.317,0.823,-5.310,-8.301,2.319
-0.187,0.323,0.826,-9.399,-7.690,3.296
-0.182,0.317,0.842,-13.184,-5.188,4.089
-0.182,0.313,0.878,-15.564,-2.075,5.005
-0.190,0.326,0.920,-14.709,1.282,7.446
-0.188,0.331,0.933,-11.292,4.395,9.521
-0.183,0.326,0.945,-7.324,5.310,10.071
-0.180,0.344,0.945,-2.502,4.517,10.742
-0.178,0.359,0.932,2.686,3.357,10.742
-0.171,0.379,0.905,4.700,2.014,9.888
0.488,2.213,-0.992,61.646,-54.993,33.325
0.425,2.552,-1.031,40.100,-37.903,12.756
0.266,2.850,-0.768,1.465,-33.020,-28.137
-0.201,2.930,-0.303,-48.706,-39.124,-88.806
-0.804,2.749,0.153,-91.675,-37.842,-137.146
-1.213,2.396,0.542,-106.506,-25.879,-138.733
-1.295,2.079,0.733,-92.102,-11.963,-93.628
-1.114,1.904,0.740,-63.599,-9.033,-34.485
-0.728,1.769,0.791,-32.898,-24.109,7.996
-0.349,1.596,0.760,-9.521,-35.950,41.260
-0.043,1.458,0.660,6.042,-24.780,74.341
0.257,1.308,0.510,17.944,-11.169,85.510
0.484,1.138,0.404,20.813,0.549,81.848
0.584,0.994,0.320,14.465,10.071,76.233
0.617,0.848,0.291,4.028,11.292,63.416
0.620,0.724,0.317,-7.202,5.066,47.974
0.558,0.638,0.367,-16.907,1.465,39.185
0.481,0.560,0.425,-28.442,0.854,32.654
0.366,0.510,0.525,-39.063,1.648,27.100
0.228,0.463,0.662,-42.236,2.075,25.085
0.183,0.429,0.774,-39.856,3.357,29.968
0.150,0.433,0.823,-35.950,1.282,34.973
0.098,0.448,0.851,-29.114,-5.310,36.743
0.044,0.466,0.868,-22.705,-12.817,35.828
0.013,0.461,0.883,-17.273,-18.250,30.579
0.008,0.446,0.885,-9.216,-19.348,23.560
-0.029,0.426,0.863,-0.854,-13.550,23.254
-0.049,0.447,0.824,4.822,-9.644,20.691
-0.077,0.444,0.793,6.226,-7.751,16.113
-0.094,0.385,0.799,-1.648,-6.470,10.559
-0.129,0.350,0.844,-10.376,-6.470,5.310
-0.155,0.333,0.894,-12.024,-7.874,3.052
-0.171,0.352,0.925,-8.789,-9.766,2.869
-0.186,0.366,0.936,-2.563,-8.362,3.235
-0.207,0.386,0.953,6.470,-4.578,4.211
-0.228,0.398,0.972,15.198,0.000,5.432
-0.169,0.379,0.966,20.386,3.357,6.958
-0.117,0.365,0.953,25.391,2.747,8.301
-0.118,0.341,0.943,29.602,-3.357,8.606
-0.118,0.337,0.925,26.001,-12.329,7.935
-0.135,0.322,0.925,23.865,-16.479,8.850
-0.142,0.305,0.921,25.208,-14.587,10.254
-0.146,0.314,0.926,28.564,-12.451,11.780
-0.162,0.328,0.932,31.799,-10.071,14.221
-0.139,0.306,0.937,34.363,-7.263,15.320
-0.079,0.306,0.941,33.569,-9.460,13.550
-0.049,0.330,0.953,30.090,-16.296,12.817
-0.069,0.339,0.985,25.696,-24.292,11.230
-0.112,0.316,1.009,24.353,-26.978,7.935
-0.132,0.299,1.010,23.682,-23.865,5.127
-0.155,0.307,1.000,22.705,-17.639,3.296
-0.195,0.290,0.993,20.142,-10.742,0.061
-0.216,0.272,0.990,18.005,-4.089,-2.808
-0.222,0.307,1.005,17.334,2.075,-3.723
-0.203,0.337,1.044,15.930,7.019,-3.479
-0.163,0.361,1.076,13.000,9.949,-3.967
-0.148,0.366,1.103,10.986,9.583,-5.249
-0.162,0.373,1.131,12.756,7.446,-6.226
-0.150,0.408,1.148,17.578,6.287,-7.874
-0.144,0.429,1.144,19.836,6.348,-8.240
-0.138,0.422,1.125,19.897,6.775,-8.911
-0.142,0.396,1.095,17.822,5.371,-9.277
-0.167,0.383,1.076,18.066,2.014,-8.667
-0.186,0.389,1.032,20.752,-0.549,-7.202
-0.199,0.374,0.983,21.851,-1.282,-5.371
-0.207,0.353,0.941,20.874,-1.160,-3.479
-0.208,0.342,0.911,19.287,-1.465,-1.160
-0.190,0.328,0.895,16.418,-2.380,0.122
-0.176,0.335,0.893,12.146,-4.272,0.977
-0.181,0.343,0.907,8.362,-5.920,0.488
-0.181,0.350,0.927,7.202,-4.761,-0.061
-0.177,0.350,0.948,9.094,-1.465,-0.244
-0.169,0.349,0.960,11.719,1.343,0.610
-0.153,0.351,0.951,14.160,2.258,2.014
-0.145,0.339,0.930,15.198,1.648,3.540
-0.134,0.330,0.920,15.442,-0.610,5.127
-0.118,0.334,0.906,14.771,-4.089,7.263
-0.116,0.323,0.892,12.329,-7.751,9.216
-0.114,0.309,0.880,10.681,-10.437,10.193
-0.114,0.314,0.871,9.460,-11.414,10.376
-0.123,0.304,0.865,7.568,-10.803,8.789
-0.123,0.301,0.859,5.432,-8.545,6.409
-0.119,0.318,0.870,3.052,-6.287,3.967
-0.127,0.326,0.891,1.099,-4.395,0.732
-0.127,0.326,0.905,0.793,-2.197,-1.770
-0.110,0.347,0.914,1.892,-0.854,-3.296
-0.122,0.380,0.928,2.319,-1.160,-5.005
-0.140,0.387,0.935,3.113,-1.526,-7.019
-0.149,0.379,0.925,4.211,-1.221,-7.019
-0.150,0.375,0.911,5.127,-1.709,-5.493
-0.148,0.375,0.891,4.944,-3.845,-3.967
-0.152,0.371,0.882,3.601,-6.409,-2.319
-0.154,0.369,0.869,1.221,-7.935,-0.793
-0.147,0.334,0.857,-1.038,-8.789,0.610
-0.143,0.337,0.846,-2.380,-9.399,0.610
-0.143,0.354,0.838,-1.404,-8.606,0.366
-0.135,0.359,0.842,-2.930,-6.531,-1.709
-0.139,0.365,0.864,-4.333,-3.845,-3.845
-0.140,0.388,0.883,-3.906,-0.916,-5.127
-0.143,0.426,0.905,-2.197,1.160,-6.287
0.443,2.610,-0.886,112.061,-86.426,-61.096
-0.105,2.988,-0.921,58.838,-32.593,-88.074
-0.628,2.959,-0.589,-23.743,9.277,-104.187
-0.889,2.817,-0.133,-90.942,23.132,-91.431
-1.099,2.654,0.356,-123.047,2.197,-58.533
-1.225,2.398,0.781,-119.385,-30.457,-29.724
-1.079,2.142,0.996,-87.219,-41.626,-0.244
-0.684,1.946,0.940,-43.152,-25.879,31.250
-0.242,1.690,0.743,1.221,-12.207,47.241
0.181,1.477,0.474,25.696,-10.864,53.711
0.385,1.235,0.249,29.358,3.784,76.538
0.567,1.056,0.116,12.268,3.540,81.116
0.599,0.863,0.080,-9.583,-8.240,73.120
0.558,0.683,0.101,-30.823,-12.695,67.078
0.501,0.581,0.142,-44.312,-15.930,60.791
0.412,0.567,0.248,-51.880,-22.705,54.077
0.267,0.567,0.424,-53.650,-22.583,54.138
0.244,0.511,0.565,-50.842,-16.174,61.035
0.272,0.465,0.674,-44.373,-10.071,69.092
0.260,0.418,0.765,-35.950,-9.949,73.975
0.213,0.374,0.838,-27.832,-12.146,71.411
0.176,0.359,0.883,-19.470,-10.559,64.819
0.145,0.387,0.895,-11.230,-3.418,57.007
0.115,0.442,0.895,-6.775,6.348,47.363
0.058,0.473,0.906,-2.258,14.282,33.752
0.015,0.479,0.926,4.578,18.921,22.522
-0.033,0.461,0.933,12.939,19.836,18.921
-0.101,0.444,0.933,19.714,15.381,19.836
-0.167,0.413,0.947,24.414,2.930,22.949
-0.204,0.372,0.930,24.170,-10.803,28.198
-0.230,0.334,0.912,27.283,-23.804,36.743
-0.237,0.322,0.879,32.227,-36.377,43.823
-0.228,0.316,0.813,33.569,-44.373,47.974
-0.199,0.294,0.770,30.701,-45.715,47.791
-0.197,0.279,0.763,26.978,-44.128,45.166
-0.191,0.243,0.761,20.813,-38.940,40.283
-0.171,0.232,0.776,12.695,-31.250,34.973
-0.165,0.287,0.846,9.277,-20.935,29.907
-0.187,0.292,0.912,9.338,-8.118,24.109
-0.183,0.303,0.968,10.864,2.869,18.616
-0.167,0.332,0.998,13.550,9.827,15.076
-0.156,0.362,1.044,19.653,8.972,8.850
-0.158,0.366,1.051,21.729,1.099,1.160
-0.164,0.331,1.043,19.287,-7.629,-2.075
-0.221,0.359,1.079,21.790,-15.076,0.610
-0.256,0.375,1.064,30.212,-16.663,3.296
-0.218,0.363,1.006,35.583,-13.184,6.409
-0.203,0.368,0.977,35.767,-12.390,8.789
-0.239,0.350,0.971,34.424,-12.329,9.460
-0.255,0.305,0.955,31.494,-9.705,9.766
-0.234,0.285,0.929,28.259,-6.714,12.634
-0.213,0.286,0.919,24.475,-5.493,16.541
-0.180,0.299,0.921,17.578,-6.287,18.250
-0.167,0.328,0.954,9.521,-8.667,16.296
-0.188,0.346,1.011,3.235,-9.705,12.695
-0.207,0.391,1.068,3.174,-6.287,10.376
-0.197,0.410,1.108,7.019,1.892,8.179
-0.196,0.407,1.111,11.475,9.094,4.272
-0.194,0.426,1.100,16.052,12.695,-0.549
-0.190,0.441,1.058,18.433,14.282,-5.554
-0.208,0.425,1.035,18.616,15.747,-8.972
-0.213,0.410,1.001,19.958,17.212,-10.498
-0.202,0.415,0.974,20.081,17.944,-9.399
-0.205,0.402,0.961,18.372,16.846,-6.958
-0.204,0.369,0.957,14.771,14.771,-3.723
-0.204,0.359,0.958,13.000,11.292,1.160
-0.192,0.366,0.971,12.207,7.080,7.080
-0.175,0.350,0.980,10.498,2.197,11.841
-0.158,0.330,0.985,8.362,-3.906,15.259
-0.157,0.331,0.997,10.010,-11.047,17.212
-0.171,0.325,0.994,13.550,-16.541,17.212
-0.177,0.310,0.972,17.578,-17.395,16.113
-0.166,0.309,0.927,20.935,-14.648,15.259
-0.157,0.311,0.886,22.034,-11.658,12.878
-0.149,0.312,0.864,22.156,-8.606,8.728
-0.150,0.306,0.852,20.691,-4.272,3.357
-0.159,0.301,0.849,17.334,0.122,-1.892
-0.177,0.305,0.862,13.245,3.357,-5.737
-0.202,0.296,0.885,9.888,5.859,-7.751
-0.215,0.296,0.901,8.545,8.606,-6.714
-0.225,0.304,0.916,8.545,9.705,-4.089
-0.229,0.321,0.950,9.155,9.521,-0.793
-0.210,0.317,0.955,9.521,7.874,2.869
-0.194,0.303,0.947,10.132,2.625,5.249
-0.182,0.310,0.937,11.658,-5.188,5.981
-0.178,0.314,0.931,13.123,-11.047,6.348
-0.144,0.317,0.923,13.550,-13.855,5.676
-0.137,0.323,0.897,10.864,-15.198,2.991
-0.146,0.295,0.870,6.897,-14.404,-1.221
-0.147,0.286,0.844,3.662,-11.597,-4.700
-0.162,0.290,0.842,-0.183,-8.362,-7.935
-0.185,0.298,0.868,-3.662,-4.578,-11.841
-0.192,0.308,0.895,-5.493,-0.427,-14.038
-0.208,0.311,0.922,-5.798,2.747,-14.160
-0.212,0.328,0.937,-4.272,4.211,-13.367
-0.227,0.354,0.959,-1.404,4.822,-11.963
-0.235,0.362,0.990,1.953,5.005,-10.437
-0.231,0.366,0.988,5.493,4.517,-8.484
-0.233,0.368,0.967,8.972,2.319,-6.958
-0.227,0.379,0.942,12.207,0.122,-5.798
0.365,2.290,-1.144,70.496,-63.721,-20.264
-0.055,2.487,-0.986,-16.052,-32.349,-51.453
-0.431,2.476,-0.557,-87.158,-20.935,-78.247
-0.656,2.412,-0.105,-120.789,-20.874,-75.317
-0.867,2.311,0.284,-121.399,-32.227,-59.326
-1.013,2.116,0.571,-106.995,-49.866,-48.340
-0.951,1.887,0.767,-86.365,-52.551,-29.236
-0.656,1.726,0.819,-59.875,-35.828,1.099
-0.326,1.573,0.726,-33.020,-19.531,22.522
-0.123,1.325,0.622,-5.615,-14.832,30.029
0.159,1.219,0.417,7.874,-26.550,22.705
0.250,0.992,0.286,2.808,-15.930,48.523
0.313,0.844,0.231,-11.169,-10.376,63.599
0.360,0.729,0.229,-23.010,-16.174,59.631
0.334,0.686,0.267,-30.334,-21.240,54.932
0.266,0.655,0.348,-36.621,-23.376,52.856
0.174,0.609,0.461,-38.574,-22.705,49.500
0.166,0.597,0.548,-32.959,-18.860,47.180
0.137,0.586,0.636,-23.926,-9.583,50.476
0.099,0.593,0.687,-14.099,-4.517,50.781
0.062,0.555,0.712,-6.104,-1.526,49.561
0.037,0.473,0.717,-4.272,0.671,46.448
-0.011,0.419,0.732,-3.540,0.366,46.936
-0.036,0.393,0.734,-1.709,-2.136,47.241
-0.033,0.404,0.732,0.488,-5.432,46.082
-0.028,0.388,0.742,-1.343,-9.216,43.396
-0.025,0.365,0.775,-7.996,-14.648,39.551
-0.037,0.333,0.836,-12.146,-19.348,36.438
-0.056,0.320,0.879,-12.756,-20.386,34.607
-0.087,0.321,0.923,-8.545,-18.555,30.640
-0.114,0.324,0.967,-1.648,-15.259,24.353
-0.133,0.293,0.965,3.113,-8.728,18.127
-0.163,0.277,0.955,8.179,-6.226,10.986
-0.178,0.275,0.936,16.968,-4.700,4.944
-0.182,0.302,0.916,25.391,-3.601,0.977
-0.183,0.348,0.877,25.269,-1.099,-2.319
-0.177,0.338,0.864,16.052,4.456,-2.197
-0.202,0.289,0.865,3.418,9.155,-0.793
-0.187,0.299,0.881,-5.737,10.498,1.587
-0.175,0.340,0.935,-11.353,8.545,1.587
-0.184,0.318,0.983,-17.395,6.897,2.014
-0.180,0.306,1.032,-18.677,5.798,2.075
-0.156,0.330,1.081,-13.306,3.601,2.441
-0.144,0.370,1.115,-4.089,1.465,3.784
-0.132,0.380,1.125,4.395,0.793,2.808
-0.122,0.394,1.147,14.587,-1.465,-5.859
-0.138,0.384,1.165,23.560,-3.662,-13.489
-0.166,0.390,1.159,27.100,-2.319,-16.357
-0.164,0.377,1.111,30.334,3.723,-16.663
-0.156,0.383,1.069,33.203,6.958,-14.465
-0.166,0.392,1.024,34.546,4.822,-12.512
-0.176,0.375,0.999,31.738,-0.061,-10.010
-0.173,0.345,0.980,24.963,-4.639,-5.493
-0.157,0.342,0.980,18.311,-9.155,0.916
-0.140,0.347,0.998,13.184,-15.259,6.226
-0.127,0.325,1.020,7.507,-21.790,9.888
-0.108,0.336,1.049,3.601,-26.917,12.939
-0.094,0.354,1.093,2.869,-30.579,13.489
-0.101,0.358,1.112,5.737,-30.762,10.681
-0.114,0.385,1.100,14.160,-26.733,7.324
-0.121,0.417,1.088,21.423,-20.081,0.122
-0.160,0.434,1.076,26.611,-13.550,-7.080
-0.190,0.398,1.049,31.555,-5.432,-13.550
-0.200,0.387,1.003,36.865,1.831,-16.968
-0.215,0.379,0.968,39.734,5.310,-17.334
-0.227,0.361,0.935,39.185,5.981,-15.198
-0.219,0.342,0.905,35.583,4.517,-10.193
-0.198,0.326,0.871,27.771,0.183,-3.418
-0.192,0.315,0.874,16.663,-6.836,3.845
-0.175,0.298,0.901,7.568,-14.221,11.719
-0.152,0.304,0.934,1.587,-20.325,18.188
-0.134,0.313,0.969,-0.549,-25.391,21.423
-0.114,0.317,0.990,1.709,-27.771,21.667
-0.106,0.320,0.995,7.263,-26.672,18.433
-0.104,0.325,0.995,14.099,-23.499,12.329
-0.118,0.336,0.979,21.057,-19.104,4.761
-0.145,0.338,0.943,26.001,-13.184,-2.991
-0.172,0.338,0.905,28.198,-7.385,-8.545
-0.204,0.325,0.879,26.855,-3.357,-11.963
-0.230,0.323,0.865,24.231,-0.549,-13.977
-0.247,0.301,0.852,19.226,0.610,-14.404
-0.263,0.285,0.845,15.747,-1.221,-11.292
-0.265,0.295,0.838,11.902,-3.723,-7.141
-0.271,0.304,0.837,7.874,-7.202,-2.869
-0.253,0.290,0.857,3.174,-10.437,0.427
-0.249,0.291,0.869,1.526,-12.329,3.479
-0.237,0.322,0.876,2.075,-12.634,4.700
-0.221,0.328,0.880,1.526,-11.230,4.211
-0.210,0.328,0.890,0.916,-8.728,2.991
-0.205,0.332,0.900,1.038,-6.287,0.671
-0.200,0.318,0.895,-0.061,-4.578,-2.747
-0.204,0.314,0.893,-0.916,-2.808,-4.028
-0.210,0.315,0.889,-1.709,-0.488,-3.845
-0.210,0.303,0.898,-4.333,0.610,-3.662
-0.219,0.290,0.910,-6.104,0.061,-2.991
-0.214,0.295,0.919,-5.310,-0.427,-1.526
-0.214,0.310,0.925,-3.174,-1.282,-0.671
-0.215,0.320,0.928,-1.099,-1.587,-0.183
-0.216,0.342,0.927,0.488,-1.526,-0.183
-0.224,0.366,0.922,2.625,-0.793,-0.916
1.170,1.881,-1.004,157.776,-156.738,62.256
1.075,2.321,-1.440,142.822,-120.361,34.180
0.843,2.764,-1.590,69.397,-66.467,-16.174
0.521,2.842,-1.298,-32.959,-30.762,-79.590
0.130,2.756,-0.813,-111.145,-19.714,-132.507
-0.373,2.673,-0.323,-143.127,-31.311,-166.077
-0.917,2.513,0.094,-148.315,-44.250,-183.228
-1.245,2.233,0.493,-143.188,-42.114,-170.044
-1.317,1.957,0.809,-123.291,-27.405,-125.183
-1.168,1.709,0.961,-87.524,-14.038,-75.623
-0.899,1.544,0.965,-40.588,-10.986,-28.809
-0.541,1.440,0.888,0.305,-13.184,13.916
-0.151,1.359,0.795,26.306,-17.029,46.875
0.154,1.277,0.700,39.368,-21.240,66.284
0.311,1.145,0.584,45.105,-24.841,73.242
0.383,0.984,0.458,49.255,-24.841,75.562
0.438,0.984,0.317,49.438,-37.659,64.148
0.451,0.896,0.235,43.884,-23.437,76.172
0.400,0.815,0.213,34.790,-9.277,82.092
0.374,0.678,0.232,23.132,-8.972,71.655
0.355,0.583,0.290,15.503,-12.451,64.087
0.310,0.495,0.400,8.972,-11.353,63.538
0.296,0.425,0.520,4.944,-13.367,60.181
0.334,0.440,0.592,6.592,-15.137,51.514
0.304,0.426,0.653,10.376,-15.747,38.025
0.264,0.469,0.662,10.071,-13.733,28.809
0.156,0.472,0.738,16.724,-2.686,27.710
0.079,0.443,0.777,19.775,-10.437,18.921
0.083,0.428,0.785,21.912,-14.893,18.250
0.039,0.441,0.798,24.719,-14.771,27.649
-0.026,0.426,0.812,24.353,-20.691,35.645
-0.113,0.335,0.829,20.020,-35.400,37.842
-0.165,0.276,0.845,16.724,-52.856,38.086
-0.192,0.251,0.852,19.104,-60.303,42.603
-0.188,0.241,0.855,21.545,-63.171,46.204
-0.163,0.237,0.854,25.391,-63.782,46.082
-0.150,0.226,0.855,29.358,-61.096,44.800
-0.184,0.286,0.887,38.086,-54.810,42.969
-0.203,0.309,0.925,48.157,-43.213,39.429
-0.175,0.282,0.919,54.138,-31.250,35.767
-0.162,0.266,0.896,53.040,-25.635,33.081
-0.206,0.243,0.921,49.133,-28.625,28.564
-0.248,0.167,0.924,40.955,-32.227,23.682
-0.248,0.118,0.927,35.400,-32.837,24.231
-0.253,0.146,0.913,33.813,-33.020,24.048
-0.303,0.128,0.921,31.006,-31.433,19.958
-0.321,0.130,0.918,27.283,-25.635,18.066
-0.318,0.119,0.913,24.902,-15.015,23.254
-0.282,0.125,0.908,20.203,-7.141,23.621
-0.275,0.105,0.920,10.681,-4.150,22.461
-0.265,0.084,0.956,1.770,-3.113,20.081
-0.237,0.110,1.001,-4.883,-2.014,17.212
-0.228,0.147,1.064,-9.033,-1.465,12.329
-0.218,0.167,1.125,-9.949,-0.977,7.935
-0.219,0.213,1.158,-8.423,-0.427,2.625
-0.224,0.230,1.177,-5.676,-1.160,-5.859
-0.264,0.230,1.191,-2.197,-1.282,-14.282
-0.296,0.217,1.181,5.554,2.686,-20.203
-0.293,0.198,1.151,13.489,7.812,-23.804
-0.292,0.234,1.106,17.578,8.728,-22.583
-0.288,0.252,1.053,18.005,7.812,-22.156
-0.289,0.247,1.030,13.306,7.507,-21.912
-0.288,0.227,1.012,7.751,7.141,-20.325
-0.284,0.251,0.994,3.174,7.263,-17.212
-0.282,0.264,0.986,-0.549,8.972,-15.442
-0.294,0.282,1.001,-4.028,11.597,-12.878
-0.256,0.285,1.008,-6.226,15.320,-10.315
-0.217,0.290,1.017,-7.446,15.442,-7.568
-0.223,0.301,1.029,-6.531,10.010,-6.470
-0.230,0.302,1.040,-4.517,3.418,-6.165
-0.224,0.302,1.042,-0.122,-0.732,-3.723
-0.209,0.318,1.026,5.798,-2.563,-1.221
-0.202,0.312,0.999,9.766,-3.906,0.916
-0.209,0.304,0.971,13.000,-5.188,2.197
-0.214,0.315,0.953,16.296,-6.226,2.747
-0.213,0.332,0.918,17.456,-6.287,3.113
-0.227,0.317,0.877,13.733,-5.493,3.052
-0.246,0.292,0.865,9.399,-4.578,1.831
-0.261,0.291,0.862,6.592,-3.784,1.160
-0.274,0.307,0.877,5.127,-2.563,1.465
-0.283,0.323,0.909,4.089,-1.404,2.075
-0.297,0.313,0.931,3.662,-0.732,3.723
-0.286,0.307,0.930,6.226,-0.488,6.042
-0.274,0.328,0.915,10.620,-1.343,8.179
-0.264,0.334,0.904,13.245,-2.930,8.789
-0.243,0.342,0.903,13.977,-3.845,8.423
-0.229,0.352,0.881,12.634,-4.333,7.690
-0.229,0.336,0.872,7.874,-5.127,6.042
-0.233,0.335,0.871,3.723,-4.639,3.784
-0.229,0.343,0.887,0.488,-1.587,2.258
-0.239,0.353,0.919,-2.747,2.319,1.343
-0.238,0.334,0.940,-5.005,5.981,1.648
-0.234,0.332,0.954,-3.662,7.019,2.502
-0.235,0.336,0.958,-1.770,4.944,4.150
-0.229,0.327,0.958,-0.183,2.258,6.470
-0.207,0.320,0.948,1.404,0.000,9.094
-0.187,0.318,0.932,2.197,-2.075,11.230
-0.177,0.317,0.916,1.892,-4.089,11.902
-0.169,0.314,0.898,0.610,-5.188,10.986
-0.166,0.305,0.886,-1.709,-5.981,9.094
0.570,2.476,-0.525,130.005,-60.974,26.062
0.385,2.622,-0.483,64.026,-73.181,-22.095
-0.021,2.489,-0.221,-16.296,-74.585,-81.238
-0.487,2.262,0.110,-79.163,-61.646,-124.023
-0.890,2.135,0.389,-106.812,-48.401,-131.042
-1.115,1.974,0.561,-104.736,-41.931,-110.107
-1.126,1.776,0.627,-86.243,-41.016,-72.083
-0.947,1.636,0.629,-57.190,-38.635,-27.161
-0.621,1.637,0.553,-33.875,-49.683,-3.174
-0.270,1.568,0.521,-17.212,-36.682,22.034
0.037,1.497,0.479,-10.925,-7.324,44.495
0.260,1.361,0.418,-7.751,15.076,41.016
0.373,1.193,0.345,-3.906,28.809,25.940
0.387,1.044,0.278,-1.648,36.194,16.174
0.362,0.889,0.244,-3.601,35.889,12.085
0.339,0.732,0.256,-10.132,30.518,11.414
0.285,0.652,0.343,-18.188,25.757,14.648
0.253,0.587,0.456,-19.592,23.987,24.841
0.287,0.547,0.545,-15.686,26.733,38.025
0.284,0.529,0.628,-8.484,26.489,47.241
0.266,0.519,0.718,0.793,20.935,51.453
0.257,0.486,0.781,8.606,14.282,54.077
0.220,0.441,0.823,13.977,7.141,56.213
0.162,0.384,0.850,18.860,-2.563,57.129
0.107,0.317,0.858,21.729,-11.719,58.716
0.038,0.270,0.839,21.545,-18.372,62.439
-0.006,0.257,0.831,19.226,-26.672,63.171
-0.041,0.245,0.838,17.639,-33.264,62.256
-0.069,0.237,0.840,16.541,-36.804,61.340
-0.075,0.240,0.840,17.334,-39.307,58.472
-0.046,0.279,0.842,18.860,-40.710,52.979
-0.041,0.277,0.863,19.714,-39.124,46.021
-0.051,0.262,0.898,19.165,-34.607,39.307
-0.086,0.280,0.920,20.142,-27.283,31.677
-0.151,0.265,0.963,23.315,-14.648,23.926
-0.183,0.257,0.990,27.832,-1.404,17.212
-0.199,0.245,0.983,32.166,9.277,11.597
-0.232,0.231,0.970,36.682,13.428,4.761
-0.262,0.226,0.958,39.978,11.963,-0.183
-0.252,0.217,0.932,40.222,8.362,-2.441
-0.235,0.216,0.927,37.231,4.333,-3.174
-0.227,0.226,0.934,33.264,0.183,-2.563
-0.190,0.222,0.942,28.564,-3.784,0.916
-0.141,0.253,0.954,23.743,-7.690,5.981
-0.115,0.284,0.966,15.869,-11.047,6.958
-0.122,0.234,0.988,8.362,-13.245,6.165
-0.125,0.194,1.011,3.174,-13.428,6.348
-0.136,0.207,1.056,4.028,-13.428,9.033
-0.145,0.189,1.070,8.362,-13.184,11.414
-0.157,0.200,1.061,16.113,-13.367,13.428
-0.161,0.205,1.016,21.423,-14.954,12.146
-0.148,0.211,0.996,23.132,-17.822,10.254
-0.161,0.214,0.969,24.658,-20.386,6.958
-0.162,0.250,0.969,27.710,-21.667,-0.977
-0.164,0.259,0.960,26.001,-21.118,-7.812
-0.170,0.249,0.972,22.827,-18.433,-10.193
-0.196,0.250,0.985,20.691,-13.672,-10.925
-0.233,0.253,1.015,20.691,-9.827,-11.536
-0.264,0.257,1.038,22.095,-8.362,-10.132
-0.287,0.261,1.041,25.269,-7.874,-7.507
-0.303,0.237,1.022,27.527,-8.484,-5.127
-0.299,0.218,1.002,28.992,-10.925,-2.319
-0.302,0.224,0.994,29.358,-14.587,0.000
-0.302,0.220,0.991,28.076,-16.541,1.282
-0.278,0.212,0.982,25.146,-16.418,2.686
-0.258,0.206,0.974,20.569,-15.930,3.845
-0.239,0.196,0.964,15.381,-15.137,4.395
-0.213,0.207,0.957,10.010,-13.733,5.493
-0.204,0.237,0.964,4.089,-12.146,6.226
-0.202,0.245,0.978,-1.160,-9.338,5.676
-0.200,0.251,0.996,-4.456,-5.615,4.944
-0.207,0.260,1.026,-4.761,-2.930,4.578
-0.210,0.282,1.039,-2.747,-1.404,5.615
-0.198,0.296,1.038,1.343,-1.221,6.958
-0.190,0.291,1.017,4.028,-1.892,6.592
-0.187,0.307,1.001,9.155,-2.502,6.165
-0.173,0.323,0.990,12.146,-2.197,5.005
-0.167,0.326,0.974,12.451,-2.563,3.357
-0.166,0.316,0.962,11.963,-3.235,1.282
-0.172,0.317,0.947,10.620,-4.456,-0.061
-0.175,0.324,0.936,9.460,-5.310,-1.221
-0.179,0.332,0.927,7.751,-5.493,-2.808
-0.192,0.333,0.918,5.310,-4.822,-4.211
-0.209,0.336,0.922,4.211,-3.174,-5.615
-0.224,0.341,0.920,4.822,-0.977,-7.019
-0.236,0.350,0.931,5.798,1.770,-7.507
-0.237,0.356,0.934,6.897,4.089,-7.080
-0.237,0.355,0.920,7.629,5.127,-6.165
-0.242,0.339,0.911,6.958,4.517,-5.066
-0.242,0.333,0.903,5.493,3.357,-2.991
-0.223,0.332,0.900,4.028,1.770,-0.427
-0.209,0.331,0.903,0.977,-0.366,1.648
-0.203,0.310,0.907,-2.869,-2.319,2.808
-0.195,0.295,0.911,-4.761,-3.357,3.540
-0.182,0.297,0.918,-4.578,-3.906,3.845
-0.176,0.297,0.935,-4.395,-4.211,3.235
-0.174,0.298,0.943,-3.662,-3.540,2.319
-0.173,0.301,0.942,-1.465,-2.563,0.916
-0.176,0.309,0.931,1.587,-1.221,-0.916
-0.184,0.314,0.918,3.845,-0.183,-2.808
0.353,2.227,-0.804,120.850,-152.649,75.745
0.167,2.284,-0.806,70.801,-109.985,23.071
-0.039,2.355,-0.558,12.634,-71.716,-22.217
-0.339,2.421,-0.285,-30.212,-47.974,-60.181
-0.777,2.315,-0.138,-54.199,-34.668,-94.971
-1.009,2.127,-0.043,-62.256,-26.733,-106.812
-1.009,1.956,0.080,-61.462,-19.226,-78.979
-0.798,1.780,0.192,-53.528,-16.724,-32.654
-0.484,1.570,0.266,-39.368,-21.057,8.301
-0.136,1.369,0.274,-19.958,-27.527,37.231
0.202,1.215,0.234,-4.578,-26.367,56.274
0.411,1.001,0.243,3.418,-17.090,62.927
0.622,0.872,0.239,-2.441,-8.972,57.617
0.648,0.732,0.292,-8.118,16.968,70.068
0.630,0.651,0.364,-14.160,31.616,68.542
0.572,0.557,0.461,-15.869,33.508,54.382
0.483,0.506,0.556,-14.709,29.175,45.715
0.382,0.470,0.657,-11.475,24.658,45.654
0.314,0.406,0.731,-9.399,16.602,46.265
0.274,0.351,0.794,-8.606,8.362,49.744
0.216,0.350,0.855,-6.165,-5.249,48.279
0.213,0.333,0.886,-3.662,-15.198,48.340
0.203,0.358,0.902,1.221,-19.775,49.072
0.179,0.381,0.912,2.930,-23.254,48.096
0.143,0.384,0.934,3.906,-25.574,46.692
0.141,0.380,0.943,5.371,-26.062,45.288
0.129,0.382,0.942,7.263,-27.039,42.297
0.100,0.391,0.959,8.667,-29.968,36.926
0.045,0.376,0.980,9.766,-33.997,30.334
-0.009,0.329,0.981,13.245,-34.607,25.574
-0.057,0.293,0.963,16.602,-34.180,22.705
-0.089,0.269,0.947,18.372,-33.325,21.240
-0.106,0.257,0.938,19.287,-31.006,19.592
-0.117,0.256,0.929,17.700,-27.588,17.578
-0.130,0.284,0.932,15.198,-23.743,15.991
-0.127,0.305,0.953,13.977,-19.836,11.719
-0.103,0.315,0.965,14.038,-13.794,6.836
-0.083,0.320,0.970,15.564,-9.583,2.869
-0.099,0.306,0.988,18.311,-6.653,-1.953
-0.134,0.303,1.022,22.644,-3.296,-6.042
-0.138,0.282,1.036,26.855,-1.038,-7.263
-0.126,0.269,1.013,25.696,-2.075,-6.165
-0.126,0.282,1.006,24.292,-5.432,-5.432
-0.136,0.282,1.006,23.682,-9.094,-7.202
-0.141,0.332,1.003,22.095,-11.963,-9.644
-0.140,0.323,0.987,17.273,-12.756,-13.123
-0.143,0.335,0.999,14.893,-12.268,-16.296
-0.159,0.338,1.002,15.686,-12.024,-17.395
-0.157,0.334,1.011,15.259,-13.550,-16.235
-0.153,0.354,1.022,12.756,-15.747,-10.925
-0.157,0.320,1.026,11.108,-18.372,-6.714
-0.167,0.281,1.015,9.399,-22.888,-4.272
-0.184,0.267,1.012,10.193,-28.625,-1.343
-0.202,0.242,1.009,10.925,-31.433,0.122
-0.202,0.219,1.005,11.169,-31.860,1.160
-0.203,0.217,0.999,11.841,-30.090,1.404
-0.199,0.225,0.993,12.695,-26.855,-0.427
-0.183,0.249,0.984,12.085,-22.278,-3.296
-0.188,0.291,0.986,10.498,-17.395,-7.263
-0.203,0.295,0.990,9.460,-11.230,-12.695
-0.207,0.311,0.988,8.850,-4.639,-17.273
-0.218,0.335,0.998,9.399,0.488,-20.142
-0.239,0.331,1.004,9.949,3.784,-21.179
-0.253,0.305,0.997,10.742,4.456,-19.226
-0.259,0.285,0.980,12.085,2.075,-14.526
-0.265,0.276,0.965,13.611,-2.991,-8.789
-0.263,0.255,0.942,14.709,-8.911,-3.479
-0.255,0.235,0.910,14.832,-14.465,2.319
-0.239,0.229,0.882,14.221,-18.250,7.080
-0.224,0.241,0.871,13.000,-20.020,8.850
-0.213,0.232,0.864,10.254,-18.616,7.080
-0.199,0.232,0.855,6.775,-14.771,4.211
-0.189,0.228,0.864,3.418,-10.254,1.465
-0.180,0.243,0.892,0.366,-6.165,-1.709
-0.188,0.261,0.929,-1.526,-3.418,-4.211
-0.193,0.264,0.959,-1.343,-1.709,-5.676
-0.195,0.266,0.967,1.160,-0.916,-4.944
-0.185,0.302,0.960,4.639,-1.831,-3.540
-0.198,0.321,0.954,7.019,-3.723,-3.479
-0.210,0.310,0.942,7.507,-4.883,-3.540
-0.217,0.302,0.926,8.850,-4.883,-2.869
-0.221,0.309,0.909,10.132,-5.066,-2.136
-0.222,0.313,0.895,10.376,-4.944,-2.747
-0.224,0.303,0.873,8.118,-5.493,-3.967
-0.219,0.284,0.859,4.761,-5.737,-4.944
-0.223,0.268,0.849,1.709,-5.737,-5.493
-0.222,0.279,0.857,-1.099,-5.493,-4.944
-0.223,0.307,0.902,-3.723,-4.822,-3.845
-0.219,0.305,0.932,-6.348,-3.662,-2.319
-0.209,0.308,0.952,-6.531,-3.113,-0.427
-0.205,0.312,0.960,-4.761,-3.723,1.282
-0.196,0.326,0.966,-2.319,-4.639,2.258
-0.188,0.344,0.970,-1.343,-5.798,3.479
-0.186,0.342,0.969,-2.502,-6.653,4.944
-0.184,0.347,0.973,-1.465,-6.531,5.554
-0.188,0.349,0.973,-1.099,-5.188,5.371
-0.189,0.351,0.973,-0.610,-3.662,4.639
-0.181,0.368,0.963,-0.610,-2.625,3.784
-0.183,0.358,0.952,-1.892,-2.258,1.892
-0.188,0.344,0.943,-3.113,-2.197,-0.244
-0.226,2.775,-0.550,-12.939,-119.873,-38.696
-0.594,2.980,-0.274,-53.772,-101.013,-60.730
-0.947,3.002,0.077,-90.820,-63.049,-88.440
-1.255,2.785,0.373,-108.276,-12.817,-102.600
-1.351,2.454,0.537,-92.285,27.344,-87.402
-1.139,2.064,0.476,-56.885,36.987,-48.096
-0.674,1.674,0.299,-25.391,13.794,6.042
-0.067,1.317,0.140,-7.202,-24.353,67.444
0.489,1.070,0.078,-8.728,-75.256,105.103
0.888,0.841,0.155,-28.564,-103.333,127.136
0.952,0.613,0.290,-42.297,-93.323,139.648
0.972,0.398,0.426,-45.898,-70.129,118.042
0.918,0.279,0.495,-36.743,-43.884,82.214
0.754,0.304,0.539,-21.301,-17.517,44.861
0.525,0.327,0.589,-11.475,6.104,10.864
0.300,0.293,0.664,-5.127,26.184,-6.897
0.190,0.309,0.696,1.160,39.978,-11.108
0.103,0.338,0.741,4.761,43.762,-7.324
0.031,0.392,0.786,7.996,37.170,0.610
-0.006,0.404,0.822,8.911,25.085,6.775
-0.052,0.436,0.869,8.728,11.536,12.939
-0.091,0.474,0.898,8.545,1.038,17.395
-0.142,0.495,0.928,7.385,-5.737,17.334
-0.190,0.485,0.961,10.071,-9.155,15.625
-0.254,0.467,0.989,15.320,-10.742,14.221
-0.275,0.442,0.983,21.301,-11.353,14.038
-0.272,0.428,0.959,27.832,-12.146,16.479
-0.304,0.456,0.939,31.250,-15.991,19.714
-0.321,0.474,0.937,30.701,-18.372,17.700
-0.314,0.477,0.949,26.306,-18.066,15.625
-0.309,0.463,0.954,21.545,-17.212,15.076
-0.306,0.430,0.954,17.273,-16.418,12.939
-0.319,0.414,0.982,16.418,-17.090,10.498
-0.327,0.424,1.000,21.606,-17.639,10.010
-0.294,0.369,0.985,25.146,-17.578,8.423
-0.299,0.379,0.959,26.733,-17.395,9.583
-0.293,0.385,0.937,29.663,-17.273,8.179
-0.291,0.406,0.939,32.776,-16.174,7.080
-0.291,0.404,0.932,30.396,-14.282,5.127
-0.307,0.391,0.930,24.231,-12.634,2.014
-0.323,0.353,0.975,22.034,-10.803,-1.343
-0.309,0.352,0.987,21.973,-6.287,-1.160
-0.289,0.340,0.977,19.897,-1.587,-1.831
-0.283,0.352,0.987,20.081,2.014,-1.831
-0.270,0.346,0.987,24.719,6.714,-1.831
-0.253,0.364,0.976,27.771,10.803,-1.099
-0.229,0.354,0.956,27.771,12.390,-0.671
-0.254,0.365,0.961,25.635,11.658,0.427
-0.251,0.380,0.971,23.621,9.644,1.282
-0.245,0.392,0.984,20.142,7.629,2.747
-0.246,0.378,0.997,15.625,4.639,3.296
-0.254,0.364,0.994,9.399,1.099,4.211
-0.269,0.373,0.986,5.920,-2.258,6.531
-0.276,0.373,0.965,2.502,-3.784,8.850
-0.277,0.341,0.946,2.930,-3.235,8.850
-0.257,0.340,0.925,4.883,-3.601,4.700
-0.256,0.351,0.925,5.554,-4.639,4.272
-0.259,0.336,0.931,6.104,-3.052,4.517
-0.247,0.321,0.927,6.958,0.977,4.700
-0.249,0.320,0.942,8.057,3.357,5.859
-0.243,0.335,0.968,9.888,3.845,6.104
-0.232,0.334,0.968,11.292,3.906,5.371
-0.221,0.323,0.976,12.512,3.418,5.615
-0.188,0.305,0.965,8.667,1.953,5.432
-0.174,0.293,0.960,4.883,-0.183,6.348
-0.167,0.280,0.949,1.099,-0.854,5.737
-0.156,0.276,0.931,-2.136,0.061,4.822
-0.150,0.277,0.927,-4.883,1.526,3.906
-0.155,0.276,0.930,-6.409,4.089,3.113
-0.162,0.280,0.937,-7.263,6.836,2.380
-0.167,0.289,0.954,-6.714,9.216,1.709
-0.179,0.310,0.968,-5.188,10.498,0.793
-0.193,0.309,0.978,-2.563,11.047,-0.793
-0.196,0.297,0.971,0.427,11.108,-1.465
-0.191,0.293,0.950,3.540,10.010,-0.793
-0.190,0.284,0.921,4.700,7.385,-0.061
-0.191,0.291,0.898,5.554,4.456,0.183
-0.191,0.295,0.877,5.005,3.357,-0.122
-0.191,0.286,0.869,2.808,3.784,0.061
-0.182,0.286,0.864,0.000,3.784,0.305
-0.170,0.289,0.873,-2.197,4.150,0.122
-0.177,0.286,0.894,-3.906,3.967,-1.099
-0.173,0.293,0.922,-3.601,3.174,-1.648
-0.173,0.311,0.933,-1.099,2.441,-1.404
-0.177,0.317,0.946,0.916,1.709,-1.343
-0.182,0.318,0.948,4.517,1.770,-1.160
-0.180,0.313,0.935,7.935,1.526,-0.122
-0.181,0.315,0.914,10.254,-0.122,0.916
-0.188,0.327,0.900,10.986,-2.319,1.221
-0.194,0.324,0.881,11.292,-2.869,0.610
-0.184,0.324,0.865,10.193,-1.709,-0.488
-0.165,0.333,0.846,6.226,-0.427,-1.831
-0.182,0.327,0.865,3.357,-0.183,-1.526
-0.191,0.347,0.880,0.854,-0.488,-2.991
-0.188,0.317,0.873,-2.197,-1.587,-4.150
-0.199,0.335,0.892,-2.991,-2.563,-1.953
-0.204,0.342,0.902,-1.831,-2.686,-0.427
-0.205,0.344,0.911,-1.892,-2.563,0.244
-0.201,0.317,0.908,-1.282,-3.235,1.648
-0.203,0.338,0.917,1.343,-3.418,5.127
0.568,2.486,-0.790,105.347,-80.200,9.827
0.201,2.783,-0.922,50.049,-76.294,-21.423
-0.212,2.801,-0.765,-27.771,-73.059,-52.185
-0.526,2.635,-0.381,-89.233,-76.233,-70.618
-0.849,2.389,-0.016,-113.220,-82.581,-79.895
-1.140,2.135,0.193,-102.478,-80.261,-85.327
-1.270,1.967,0.319,-77.881,-60.669,-76.965
-1.139,1.803,0.379,-53.223,-27.649,-52.307
-0.876,1.636,0.407,-33.813,-1.404,-21.179
-0.529,1.468,0.403,-17.151,10.742,8.423
-0.146,1.300,0.407,-4.578,6.104,23.376
0.168,1.136,0.365,1.221,3.174,35.156
0.323,0.998,0.357,-0.305,16.663,56.335
0.421,0.840,0.367,-2.502,24.841,57.068
0.472,0.724,0.413,-2.563,27.466,49.683
0.461,0.660,0.487,-2.808,31.982,47.791
0.444,0.605,0.550,-3.296,32.288,44.006
0.422,0.576,0.632,-2.869,26.245,37.170
0.393,0.583,0.677,-2.869,19.836,32.104
0.336,0.537,0.709,-3.357,16.113,32.043
0.263,0.500,0.740,-3.784,5.432,30.884
0.194,0.484,0.758,-3.113,-3.662,30.823
0.115,0.499,0.774,-2.075,-10.925,35.278
0.084,0.500,0.776,1.404,-19.409,38.452
0.054,0.495,0.750,3.479,-28.503,39.246
-0.014,0.480,0.734,4.028,-36.682,39.978
-0.093,0.445,0.749,4.700,-42.786,39.185
-0.133,0.373,0.762,7.996,-43.213,40.649
-0.137,0.323,0.763,10.254,-39.185,44.434
-0.152,0.298,0.788,11.719,-36.255,45.044
-0.185,0.287,0.825,15.564,-33.386,40.588
-0.187,0.319,0.840,21.484,-25.574,34.729
-0.162,0.334,0.834,23.926,-15.320,25.085
-0.123,0.319,0.839,22.827,-4.028,15.686
-0.099,0.387,0.863,22.400,2.808,8.301
-0.113,0.444,0.889,22.339,7.446,-2.258
-0.134,0.417,0.916,21.179,11.597,-14.587
-0.152,0.382,0.926,19.592,15.503,-21.423
-0.201,0.368,0.950,19.043,18.677,-19.897
-0.214,0.339,0.946,18.005,20.203,-15.869
-0.219,0.344,0.946,18.494,21.118,-9.155
-0.198,0.341,0.941,17.395,18.066,-5.066
-0.179,0.297,0.938,13.428,12.024,-0.916
-0.166,0.275,0.944,10.254,3.906,3.296
-0.161,0.269,0.966,10.193,-2.808,6.165
-0.161,0.286,1.006,14.099,-5.249,9.216
-0.148,0.314,1.021,18.494,-4.456,12.573
-0.123,0.358,1.010,23.010,-2.258,15.076
-0.094,0.359,0.977,23.499,0.122,15.137
-0.102,0.338,0.969,22.156,2.075,13.611
-0.099,0.307,0.953,21.118,2.502,10.315
-0.100,0.307,0.935,22.156,0.366,6.958
-0.114,0.287,0.911,21.729,-2.563,3.357
-0.123,0.278,0.899,19.287,-3.967,0.366
-0.151,0.285,0.906,17.883,-4.028,-2.319
-0.168,0.295,0.917,18.677,-2.441,-4.517
-0.169,0.312,0.918,19.897,-0.305,-3.052
-0.147,0.336,0.909,19.653,0.305,-1.343
-0.129,0.326,0.905,16.846,-1.892,-0.122
-0.129,0.309,0.917,11.047,-5.371,1.526
-0.128,0.321,0.936,6.592,-8.240,4.272
-0.125,0.336,0.952,3.113,-9.338,5.432
-0.128,0.304,0.959,-1.465,-9.460,6.287
-0.132,0.303,0.963,-4.700,-9.705,6.592
-0.151,0.325,0.972,-5.798,-9.888,5.676
-0.180,0.319,0.982,-6.592,-7.568,3.540
-0.185,0.317,0.981,-6.287,-3.845,1.770
-0.182,0.349,0.973,-3.845,-1.099,-0.244
-0.197,0.374,0.969,-1.221,0.610,-3.601
-0.210,0.367,0.973,0.732,3.296,-5.981
-0.207,0.367,0.979,3.113,5.737,-6.042
-0.200,0.381,0.976,6.531,6.165,-4.944
-0.186,0.396,0.960,9.521,5.127,-4.028
-0.187,0.399,0.945,9.949,4.333,-3.174
-0.184,0.391,0.924,8.362,3.723,-1.038
-0.180,0.390,0.908,6.470,2.808,1.038
-0.173,0.389,0.897,3.967,1.160,2.563
-0.177,0.366,0.903,0.122,-1.282,3.845
-0.179,0.355,0.915,-2.747,-3.784,5.493
-0.175,0.361,0.927,-2.625,-5.737,7.507
-0.167,0.347,0.925,-1.221,-6.531,8.728
-0.155,0.343,0.911,0.610,-7.141,9.033
-0.149,0.357,0.906,2.991,-6.958,8.301
-0.151,0.349,0.905,4.333,-4.822,6.592
-0.143,0.336,0.895,4.456,-2.014,5.066
-0.140,0.342,0.887,3.601,-0.793,4.089
-0.141,0.339,0.887,1.282,-0.610,2.747
-0.139,0.322,0.893,-1.587,-0.793,1.831
-0.130,0.321,0.901,-4.150,-1.465,1.648
-0.116,0.339,0.907,-6.226,-2.136,2.136
-0.117,0.359,0.922,-8.545,-2.747,2.075
-0.131,0.368,0.946,-9.583,-1.709,1.282
-0.131,0.388,0.967,-8.362,0.427,0.793
-0.128,0.403,0.981,-5.737,2.014,-0.061
-0.134,0.408,0.981,-2.014,2.319,-1.465
-0.147,0.409,0.972,2.075,0.549,-2.991
-0.159,0.402,0.959,5.310,-0.916,-3.357
-0.149,0.401,0.937,7.385,-2.197,-2.625
-0.145,0.394,0.914,7.019,-5.005,-1.770
-0.145,0.383,0.904,4.456,-7.507,-0.916
0.493,2.560,-0.803,173.035,-105.469,26.489
0.365,2.861,-0.988,106.812,-99.182,13.245
0.101,2.957,-0.751,10.071,-76.904,-7.568
-0.152,2.918,-0.163,-84.656,-57.007,-44.983
-0.498,2.779,0.362,-133.911,-46.448,-84.656
-0.902,2.497,0.638,-120.911,-42.175,-110.779
-1.055,2.178,0.608,-77.759,-36.865,-104.980
-0.935,1.974,0.465,-43.335,-29.541,-65.796
-0.645,1.758,0.341,-22.888,-28.381,-22.034
-0.329,1.547,0.252,-8.667,-33.997,10.620
0.056,1.386,0.184,5.859,-43.091,20.264
0.391,1.271,0.094,6.836,-35.034,29.480
0.488,1.029,0.052,-3.662,-8.545,43.884
0.557,0.815,0.053,-16.724,7.446,37.048
0.562,0.634,0.097,-26.367,18.433,31.311
0.500,0.524,0.206,-36.987,25.452,27.588
0.434,0.448,0.339,-44.617,29.724,25.818
0.390,0.375,0.501,-46.814,35.278,26.245
0.377,0.364,0.631,-45.715,43.518,28.503
0.378,0.360,0.743,-39.490,50.110,27.649
0.311,0.352,0.848,-29.968,48.035,20.996
0.240,0.348,0.887,-17.517,43.457,15.686
0.187,0.324,0.893,-8.179,35.767,16.479
0.137,0.305,0.855,-4.028,20.508,20.813
0.072,0.284,0.811,-3.418,2.319,26.550
-0.010,0.262,0.793,-3.540,-14.343,30.579
-0.089,0.280,0.788,-3.296,-27.832,31.555
-0.147,0.297,0.800,-1.648,-33.752,33.813
-0.168,0.300,0.797,0.061,-32.898,35.583
-0.181,0.313,0.801,2.686,-28.809,33.691
-0.174,0.313,0.822,7.324,-25.208,28.564
-0.199,0.375,0.850,12.573,-21.851,22.949
-0.204,0.377,0.857,15.320,-17.822,15.930
-0.206,0.331,0.879,14.954,-12.634,9.399
-0.239,0.338,0.887,20.935,-9.766,8.850
-0.210,0.360,0.887,27.588,-9.644,9.583
-0.211,0.338,0.893,30.884,-7.996,14.832
-0.212,0.319,0.868,26.245,-11.353,14.648
-0.225,0.303,0.872,25.879,-9.644,11.841
-0.235,0.280,0.881,24.048,-8.667,8.850
-0.199,0.301,0.903,24.536,-6.836,9.216
-0.186,0.342,0.906,20.752,-7.507,9.521
-0.167,0.307,0.911,11.780,-10.498,6.836
-0.179,0.294,0.936,5.005,-14.038,5.554
-0.183,0.314,0.980,3.479,-15.686,5.066
-0.185,0.344,1.010,4.883,-15.137,3.479
-0.187,0.346,1.024,8.667,-13.428,5.005
-0.177,0.331,1.051,10.315,-10.620,2.686
-0.184,0.301,1.045,10.986,-11.780,1.465
-0.201,0.291,1.043,13.977,-14.954,3.845
-0.209,0.296,1.042,18.005,-18.494,6.836
-0.223,0.293,1.028,18.616,-21.912,9.521
-0.238,0.274,1.021,18.372,-24.475,12.207
-0.249,0.289,1.020,19.653,-27.649,14.282
-0.251,0.300,1.025,21.912,-30.518,15.198
-0.230,0.317,1.015,22.034,-31.433,15.442
-0.214,0.334,1.003,19.897,-30.457,13.672
-0.213,0.345,1.008,17.029,-27.100,9.827
-0.229,0.348,1.026,14.832,-20.691,5.005
-0.250,0.360,1.054,13.550,-13.000,0.122
-0.270,0.378,1.073,14.404,-6.042,-3.601
-0.295,0.385,1.072,16.296,-0.183,-5.188
-0.316,0.383,1.079,18.677,4.883,-5.676
-0.324,0.375,1.066,20.935,7.324,-5.127
-0.324,0.371,1.037,22.339,5.920,-3.601
-0.332,0.365,1.006,21.912,1.892,-1.282
-0.341,0.351,0.982,19.897,-1.526,1.892
-0.338,0.329,0.959,17.029,-3.296,5.676
-0.325,0.307,0.935,13.428,-5.127,9.766
-0.288,0.296,0.921,9.583,-7.935,13.428
-0.244,0.314,0.917,6.165,-10.986,15.503
-0.222,0.312,0.907,2.319,-12.695,13.672
-0.212,0.297,0.910,-0.183,-11.658,10.376
-0.194,0.312,0.908,-0.305,-8.606,7.202
-0.193,0.342,0.926,0.916,-4.211,3.784
-0.190,0.343,0.924,2.808,0.854,0.366
-0.191,0.340,0.923,5.676,4.761,-2.380
-0.197,0.339,0.905,9.399,6.653,-3.906
-0.204,0.363,0.896,12.451,6.653,-3.784
-0.214,0.375,0.900,14.648,6.287,-2.747
-0.218,0.372,0.884,16.174,5.676,-0.977
-0.209,0.357,0.865,17.334,3.235,1.282
-0.203,0.361,0.842,16.663,-0.366,3.845
-0.195,0.372,0.840,14.038,-3.845,6.287
-0.194,0.373,0.844,9.521,-6.775,7.568
-0.192,0.359,0.845,4.150,-8.667,8.789
-0.184,0.354,0.851,0.244,-9.033,9.644
-0.191,0.377,0.867,-2.014,-7.935,8.972
-0.208,0.394,0.898,-2.808,-5.066,6.653
-0.211,0.405,0.913,-1.648,-0.488,4.395
-0.211,0.421,0.911,0.854,3.296,2.563
-0.220,0.431,0.911,2.991,5.493,0.977
-0.233,0.437,0.918,4.272,6.714,-0.427
-0.229,0.437,0.923,4.883,8.545,-0.732
-0.232,0.431,0.922,5.371,9.521,-0.671
-0.227,0.416,0.914,5.676,9.521,-0.610
-0.219,0.408,0.912,5.249,8.362,0.000
-0.223,0.402,0.906,3.784,6.287,0.977
-0.221,0.385,0.905,2.136,4.639,2.014
-0.203,0.385,0.899,1.160,3.479,3.723
0.678,2.486,-1.153,40.833,-119.385,35.278
0.445,2.919,-1.073,-27.100,-102.966,-0.854
0.061,3.046,-0.510,-105.164,-68.970,-61.951
-0.344,3.179,0.100,-138.306,-18.616,-109.680
-0.805,3.107,0.567,-127.747,30.701,-141.357
-1.184,2.739,0.868,-102.295,52.490,-145.447
-1.372,2.309,0.965,-65.247,35.950,-103.271
-1.131,1.988,0.825,-22.095,-4.822,-28.381
-0.593,1.734,0.538,17.029,-51.575,49.133
-0.052,1.412,0.305,43.091,-89.050,104.065
0.501,1.132,0.086,43.091,-110.718,117.188
0.742,0.856,0.038,26.672,-79.651,135.010
0.842,0.641,0.108,4.700,-37.354,123.352
0.818,0.504,0.256,-6.165,-1.404,92.041
0.733,0.487,0.390,-7.812,23.376,61.279
0.591,0.426,0.502,-9.033,37.109,40.649
0.487,0.419,0.599,-10.132,35.950,30.701
0.387,0.414,0.689,-8.362,29.907,31.738
0.359,0.386,0.768,-6.958,21.484,34.790
0.333,0.372,0.795,-4.272,11.841,38.452
0.288,0.451,0.773,-1.038,0.488,43.823
0.234,0.479,0.749,2.014,-8.606,44.128
0.184,0.430,0.733,1.709,-14.648,40.405
0.117,0.442,0.742,0.244,-19.958,39.246
0.021,0.484,0.752,0.061,-23.743,39.368
-0.047,0.490,0.759,1.648,-21.729,38.208
-0.069,0.455,0.753,2.869,-17.334,34.729
-0.090,0.431,0.738,7.019,-14.282,35.339
-0.131,0.481,0.731,12.939,-13.855,38.086
-0.162,0.504,0.738,17.822,-15.015,40.100
-0.162,0.473,0.755,15.564,-15.076,38.940
-0.172,0.389,0.762,13.733,-16.907,39.368
-0.168,0.320,0.778,13.916,-19.897,39.978
-0.177,0.294,0.789,15.991,-20.996,38.574
-0.147,0.334,0.808,18.127,-16.968,36.865
-0.147,0.337,0.827,17.639,-9.949,31.616
-0.139,0.286,0.845,13.306,-3.052,18.433
-0.155,0.273,0.878,15.320,2.747,7.446
-0.161,0.286,0.906,22.583,8.911,-0.427
-0.150,0.330,0.937,28.259,16.846,-1.892
-0.148,0.346,0.953,27.100,21.301,-0.977
-0.152,0.349,0.980,21.301,20.508,-0.610
-0.185,0.345,1.016,16.663,16.479,1.831
-0.182,0.316,1.009,13.306,11.230,9.277
-0.185,0.270,1.017,11.841,2.686,16.418
-0.192,0.247,1.000,12.024,-8.545,20.203
-0.188,0.255,0.978,15.442,-18.188,21.606
-0.155,0.271,0.957,18.005,-21.667,21.423
-0.123,0.300,0.940,18.005,-21.484,20.203
-0.105,0.316,0.938,17.151,-18.860,17.700
-0.086,0.305,0.937,17.334,-14.465,11.047
-0.072,0.298,0.952,15.808,-12.390,7.202
-0.086,0.278,0.970,11.902,-14.526,5.432
-0.120,0.250,0.997,7.996,-17.517,3.418
-0.156,0.252,1.014,7.507,-19.958,3.113
-0.190,0.263,1.024,9.644,-22.156,3.540
-0.215,0.251,1.016,12.268,-22.583,3.052
-0.226,0.255,1.004,14.709,-22.095,3.235
-0.232,0.257,1.000,17.334,-19.714,3.540
-0.206,0.250,0.993,17.761,-17.151,3.906
-0.166,0.271,0.978,16.235,-16.296,4.211
-0.141,0.297,0.982,13.733,-16.541,1.953
-0.140,0.294,1.001,6.775,-14.832,-2.991
-0.164,0.276,1.019,2.625,-11.292,-6.653
-0.205,0.287,1.059,0.183,-6.775,-9.521
-0.226,0.297,1.062,0.916,-1.587,-10.498
-0.233,0.292,1.076,0.610,4.639,-10.071
-0.247,0.275,1.064,2.014,8.057,-8.789
-0.260,0.300,1.069,4.822,8.911,-7.568
-0.257,0.316,1.074,7.568,8.301,-6.104
-0.253,0.312,1.055,8.728,4.639,-5.737
-0.266,0.316,1.033,10.254,-2.258,-5.615
-0.281,0.331,1.020,12.573,-7.263,-4.578
-0.270,0.333,1.003,13.428,-8.728,-2.625
-0.247,0.334,0.983,13.000,-9.399,-0.549
-0.231,0.334,0.965,11.108,-10.559,-0.122
-0.234,0.337,0.958,9.644,-10.803,-1.038
-0.245,0.335,0.951,9.460,-9.644,-2.441
-0.262,0.335,0.955,10.742,-7.751,-2.808
-0.258,0.338,0.937,13.550,-5.615,-1.892
-0.259,0.332,0.920,15.686,-4.578,-0.305
-0.265,0.334,0.903,17.090,-5.371,2.014
-0.265,0.355,0.895,18.494,-6.409,5.310
-0.245,0.350,0.879,18.127,-6.958,7.874
-0.231,0.335,0.863,15.747,-8.118,9.277
-0.215,0.332,0.855,13.428,-10.010,10.376
-0.195,0.344,0.858,10.559,-10.498,10.681
-0.183,0.344,0.874,7.141,-9.277,9.827
-0.172,0.332,0.884,4.272,-6.470,7.812
-0.158,0.320,0.891,2.991,-3.784,5.737
-0.149,0.317,0.888,2.197,-1.953,3.967
-0.153,0.322,0.888,1.221,-1.099,1.953
-0.170,0.328,0.891,0.488,-0.916,0.793
-0.175,0.323,0.888,0.732,0.061,0.610
-0.175,0.324,0.877,1.404,1.343,0.549
-0.176,0.342,0.875,2.197,1.282,0.732
-0.176,0.370,0.883,1.770,0.305,0.977
-0.179,0.370,0.877,0.122,0.061,0.977
-0.185,0.358,0.876,-0.610,0.366,0.183
-0.188,0.366,0.871,0.305,-0.061,-0.366
-0.274,2.632,-0.569,1.160,-51.880,28.625
-0.401,2.748,-0.067,-80.261,-65.674,30.823
-0.588,2.649,0.552,-126.709,-78.491,19.104
-0.806,2.394,0.923,-111.084,-70.984,-4.517
-0.911,2.210,0.891,-53.101,-46.997,-22.888
-0.826,1.976,0.638,2.014,-19.897,-21.667
-0.609,1.713,0.401,33.081,-6.592,-2.747
-0.349,1.475,0.249,44.006,-9.766,23.926
-0.060,1.288,0.189,43.152,-18.066,51.392
0.163,1.080,0.222,36.560,-20.142,68.604
0.424,0.925,0.241,22.522,-20.325,62.439
0.430,0.748,0.315,12.024,3.296,73.364
0.441,0.620,0.364,5.432,22.827,71.228
0.457,0.499,0.405,2.380,30.151,55.115
0.398,0.417,0.467,-0.122,31.067,43.335
0.338,0.363,0.501,-4.944,28.076,30.762
0.302,0.301,0.579,-8.362,26.062,21.851
0.252,0.277,0.638,-12.390,21.118,14.404
0.144,0.299,0.700,-14.832,17.456,9.155
0.091,0.275,0.753,-12.695,14.038,3.052
0.064,0.245,0.788,-9.216,12.817,3.113
0.023,0.241,0.811,-6.470,11.536,6.653
0.008,0.252,0.831,-5.188,6.226,6.165
-0.032,0.305,0.844,-3.479,-1.343,5.127
-0.071,0.261,0.857,-5.676,-7.141,2.625
-0.121,0.250,0.878,-5.554,-10.742,3.113
-0.143,0.249,0.876,-2.014,-13.306,5.432
-0.122,0.287,0.858,-2.014,-16.296,8.423
-0.138,0.314,0.859,-3.601,-18.616,9.521
-0.149,0.316,0.864,-5.371,-19.836,5.493
-0.160,0.300,0.881,-5.676,-20.020,0.122
-0.135,0.301,0.883,-2.625,-17.334,-3.357
-0.136,0.368,0.868,-4.639,-12.817,-2.930
-0.165,0.312,0.892,-11.841,-5.981,-2.319
-0.181,0.253,0.910,-17.822,-2.808,-4.944
-0.184,0.270,0.923,-14.404,0.610,-4.272
-0.189,0.284,0.930,-11.536,2.014,-3.967
-0.181,0.314,0.933,-7.751,2.319,-6.409
-0.183,0.284,0.973,-1.099,2.869,-7.019
-0.186,0.315,0.997,7.996,4.761,-3.418
-0.137,0.336,0.989,13.855,4.883,-2.686
-0.083,0.345,0.975,15.442,1.770,-2.197
-0.065,0.328,0.975,12.329,-4.822,-1.160
-0.069,0.306,0.970,2.930,-11.902,-1.221
-0.095,0.296,0.978,0.244,-17.029,-3.052
-0.104,0.286,0.965,-1.343,-18.188,-4.517
-0.123,0.285,0.963,-4.150,-16.052,-3.113
-0.146,0.298,0.966,-4.150,-11.169,-1.099
-0.146,0.301,0.971,-2.258,-6.714,0.000
-0.114,0.288,0.960,-3.174,-4.639,1.831
-0.098,0.311,0.957,-4.456,-7.935,2.747
-0.099,0.344,0.967,-5.127,-13.855,1.160
-0.092,0.354,0.979,-6.958,-17.395,-0.366
-0.078,0.375,0.995,-7.874,-18.005,-1.343
-0.076,0.392,1.001,-7.385,-17.456,-2.625
-0.085,0.389,1.014,-7.324,-16.663,-4.395
-0.112,0.378,1.028,-7.324,-14.709,-4.272
-0.128,0.365,1.027,-5.005,-11.597,-2.319
-0.147,0.358,1.021,-1.892,-10.010,-0.061
-0.165,0.355,1.002,1.099,-10.132,1.587
-0.169,0.364,0.964,2.930,-10.376,3.113
-0.183,0.377,0.936,3.845,-10.071,3.357
-0.182,0.385,0.924,3.845,-7.629,2.258
-0.154,0.397,0.912,2.075,-4.456,0.977
-0.142,0.401,0.918,-1.221,-2.991,-0.793
-0.134,0.418,0.934,-4.028,-2.014,-2.319
-0.125,0.433,0.957,-6.287,-0.366,-2.625
-0.105,0.427,0.981,-7.385,1.709,-1.404
-0.097,0.420,1.008,-7.935,2.319,0.061
-0.096,0.406,1.028,-7.080,0.793,1.770
-0.087,0.392,1.028,-4.578,-1.587,4.395
-0.084,0.369,1.018,-1.160,-4.700,6.592
-0.092,0.351,1.003,1.831,-8.179,7.507
-0.109,0.340,0.987,4.639,-11.108,7.385
-0.120,0.330,0.957,7.080,-11.963,6.714
-0.134,0.325,0.932,8.789,-11.353,5.371
-0.133,0.324,0.907,9.460,-10.193,3.235
-0.134,0.334,0.890,8.972,-8.911,0.732
-0.147,0.341,0.884,7.324,-7.751,-2.380
-0.158,0.348,0.889,6.409,-5.676,-5.066
-0.159,0.364,0.904,6.042,-2.991,-6.470
-0.157,0.388,0.912,5.981,-1.587,-7.324
-0.181,0.400,0.934,5.676,-1.770,-7.751
-0.199,0.401,0.951,7.690,-1.892,-7.324
-0.199,0.401,0.951,10.864,-2.014,-4.822
-0.190,0.402,0.935,13.977,-4.028,-1.892
-0.184,0.401,0.912,15.625,-7.507,0.732
-0.184,0.391,0.892,15.930,-10.864,2.380
-0.187,0.380,0.879,15.625,-13.489,3.479
-0.185,0.363,0.866,14.893,-14.648,4.150
-0.176,0.350,0.851,13.245,-14.893,4.822
-0.163,0.337,0.837,10.254,-15.015,5.554
-0.158,0.321,0.828,6.653,-14.771,5.615
-0.155,0.346,0.829,5.005,-13.611,4.150
-0.155,0.362,0.847,3.418,-10.742,1.648
-0.151,0.376,0.854,1.770,-6.897,-0.549
-0.160,0.384,0.866,0.854,-4.395,-2.502
-0.179,0.402,0.879,1.038,-3.357,-4.089
-0.201,0.411,0.895,2.747,-2.197,-4.395
-0.207,0.414,0.888,4.395,-1.770,-3.418
0.923,1.993,-1.081,46.021,-28.320,1.099
0.960,2.379,-1.053,20.386,-28.748,-40.894
0.721,2.692,-0.869,-12.146,-52.856,-99.854
0.175,2.843,-0.615,-39.307,-82.520,-161.682
-0.386,2.706,-0.369,-63.171,-91.980,-199.097
-0.858,2.387,-0.135,-82.886,-79.834,-197.083
-1.265,2.079,0.105,-95.032,-63.599,-170.898
-1.540,1.821,0.400,-102.112,-46.265,-139.832
-1.579,1.660,0.777,-96.741,-21.973,-100.220
-1.349,1.485,1.080,-71.411,14.160,-52.063
-0.832,1.311,1.160,-27.771,57.983,-5.554
-0.233,1.095,1.084,20.203,88.989,30.396
0.416,0.964,0.870,46.509,85.449,51.453
0.810,0.725,0.701,46.692,77.454,82.336
1.184,0.408,0.559,30.029,49.622,90.698
1.361,0.161,0.496,11.353,11.536,88.257
1.338,0.102,0.456,-3.906,-19.043,77.698
1.183,0.120,0.422,-16.846,-30.396,54.321
0.982,0.164,0.400,-33.936,-30.151,19.714
0.672,0.277,0.457,-50.537,-25.696,-11.719
0.388,0.405,0.519,-61.035,-16.907,-34.119
0.184,0.532,0.600,-64.758,-4.639,-44.556
0.023,0.633,0.699,-63.293,-1.099,-47.363
-0.070,0.761,0.757,-50.781,4.333,-45.776
-0.127,0.930,0.784,-35.889,9.094,-35.461
-0.150,1.036,0.802,-22.583,11.902,-21.606
-0.174,1.088,0.797,-10.010,9.766,-9.705
-0.198,1.129,0.760,3.723,0.732,0.427
-0.227,1.136,0.714,18.860,-11.108,12.512
-0.213,1.107,0.659,31.372,-29.053,28.564
-0.159,1.069,0.577,43.579,-42.847,46.265
-0.086,1.032,0.497,55.115,-45.349,64.514
-0.036,1.016,0.444,60.547,-48.401,79.163
0.013,0.959,0.402,59.631,-50.049,85.815
0.061,0.891,0.392,55.420,-46.204,86.914
0.032,0.818,0.422,49.622,-42.847,82.581
-0.008,0.768,0.482,45.166,-41.199,76.416
-0.027,0.724,0.541,45.471,-35.706,75.134
0.010,0.686,0.594,48.706,-26.672,76.965
0.055,0.637,0.623,51.331,-19.897,76.538
0.108,0.596,0.642,52.368,-16.174,73.181
0.158,0.547,0.649,50.537,-14.465,67.505
0.186,0.515,0.663,45.593,-15.442,60.364
0.172,0.491,0.676,40.161,-16.663,51.025
0.113,0.450,0.682,33.264,-17.151,41.321
0.076,0.420,0.685,27.405,-17.883,33.142
0.058,0.380,0.716,20.447,-17.883,29.236
0.011,0.349,0.757,15.320,-20.508,26.123
-0.006,0.339,0.793,13.977,-23.743,23.132
-0.021,0.325,0.825,15.320,-24.780,20.142
-0.046,0.278,0.855,16.663,-23.926,17.578
-0.078,0.264,0.890,19.836,-22.888,14.954
-0.081,0.272,0.919,25.391,-20.020,12.390
-0.079,0.248,0.922,31.311,-17.151,10.315
-0.090,0.230,0.897,32.593,-17.090,8.667
-0.133,0.235,0.903,33.508,-16.113,7.019
-0.174,0.246,0.895,35.706,-13.611,6.165
-0.166,0.198,0.870,34.241,-10.254,8.301
-0.180,0.156,0.850,28.381,-9.094,11.597
-0.208,0.132,0.881,22.217,-10.010,14.587
-0.210,0.094,0.915,16.357,-13.245,18.677
-0.187,0.060,0.920,9.521,-16.724,23.499
-0.174,0.083,0.947,0.244,-21.667,24.597
-0.179,0.106,0.997,-7.751,-24.597,22.034
-0.193,0.107,1.064,-14.771,-22.522,18.433
-0.197,0.119,1.121,-18.005,-15.808,14.099
-0.197,0.150,1.161,-17.395,-8.789,7.812
-0.227,0.169,1.201,-14.282,-2.319,0.854
-0.250,0.172,1.213,-9.521,4.578,-4.272
-0.285,0.210,1.212,-6.897,7.751,-4.272
-0.302,0.241,1.216,-3.845,10.925,-3.357
-0.297,0.237,1.208,-1.709,12.024,-3.357
-0.291,0.240,1.197,-0.122,7.874,-3.235
-0.268,0.244,1.187,0.366,0.488,-1.709
-0.254,0.243,1.165,-0.671,-5.371,-0.061
-0.235,0.252,1.143,-1.465,-7.935,1.648
-0.213,0.250,1.116,-2.258,-7.629,1.465
-0.207,0.275,1.104,-2.747,-7.141,0.244
-0.209,0.300,1.092,1.221,-2.991,-5.981
-0.212,0.311,1.070,4.639,4.456,-11.108
-0.207,0.328,1.033,6.226,8.972,-13.184
-0.219,0.329,1.000,8.850,11.963,-16.052
-0.235,0.337,0.981,12.024,14.771,-19.531
-0.249,0.343,0.972,13.733,12.878,-18.372
-0.251,0.332,0.966,14.221,7.202,-13.977
-0.256,0.322,0.950,15.564,-1.160,-7.446
-0.244,0.334,0.926,17.090,-8.972,-0.366
-0.222,0.346,0.901,16.785,-13.855,6.653
-0.201,0.334,0.870,14.099,-17.151,12.573
-0.190,0.331,0.850,10.498,-19.043,15.564
-0.177,0.342,0.831,7.507,-17.334,16.235
-0.167,0.358,0.826,4.700,-12.939,14.832
-0.153,0.360,0.837,1.831,-6.958,11.536
-0.149,0.362,0.854,0.000,-1.953,7.935
-0.159,0.380,0.872,0.305,0.732,4.456
-0.176,0.393,0.878,2.563,2.625,1.953
-0.185,0.393,0.885,5.127,3.235,1.282
-0.173,0.395,0.882,7.751,2.563,2.686
-0.156,0.406,0.868,8.911,-0.244,4.883
-0.150,0.402,0.864,8.545,-4.272,6.165
1.074,2.091,-0.988,114.441,-149.231,52.246
0.894,2.317,-1.224,58.777,-156.494,2.625
0.548,2.543,-1.168,-18.982,-141.724,-62.439
0.101,2.761,-0.878,-94.299,-109.802,-124.878
-0.506,2.829,-0.463,-149.597,-72.876,-173.096
-1.077,2.634,0.037,-170.349,-36.011,-195.557
-1.396,2.211,0.472,-157.715,-2.441,-184.509
-1.425,1.926,0.752,-116.089,22.461,-147.888
-1.231,1.736,0.887,-57.495,38.208,-107.910
-0.903,1.518,0.899,-7.874,58.289,-73.242
-0.515,1.218,0.855,20.264,81.116,-43.274
-0.113,0.889,0.779,34.485,80.750,-25.818
0.250,0.570,0.700,36.072,68.115,3.357
0.489,0.356,0.625,29.602,53.162,42.969
0.726,0.115,0.524,22.461,25.574,57.251
0.898,-0.057,0.430,17.090,-3.967,55.908
0.944,-0.043,0.356,9.460,-20.996,48.523
0.828,0.057,0.375,-3.906,-23.621,30.273
0.643,0.162,0.441,-19.043,-17.761,-0.305
0.398,0.271,0.517,-28.809,-4.639,-23.804
0.169,0.380,0.600,-33.142,5.554,-39.917
-0.003,0.462,0.679,-31.921,12.817,-43.518
-0.100,0.522,0.748,-27.527,16.479,-38.940
-0.110,0.576,0.802,-20.752,12.939,-31.677
-0.083,0.611,0.833,-13.611,10.986,-23.621
-0.060,0.630,0.829,-9.277,10.315,-13.672
-0.029,0.636,0.804,-7.751,8.850,-3.662
-0.023,0.624,0.791,-8.240,2.197,3.662
-0.046,0.623,0.777,-8.301,-9.827,7.935
-0.062,0.628,0.762,-7.385,-21.057,14.038
-0.070,0.641,0.736,-6.104,-27.588,22.034
-0.071,0.656,0.737,-5.798,-35.339,24.963
-0.068,0.693,0.731,-6.714,-44.189,21.729
-0.090,0.741,0.746,-6.470,-31.982,21.729
-0.140,0.760,0.778,-6.531,-9.888,20.020
-0.167,0.782,0.797,-3.967,11.108,11.169
-0.165,0.836,0.812,0.610,30.090,3.479
-0.153,0.881,0.815,4.211,41.626,1.099
-0.149,0.946,0.808,4.272,42.542,3.479
-0.106,0.971,0.780,2.625,35.950,4.822
-0.060,0.962,0.729,0.183,25.757,8.301
-0.055,0.981,0.697,-1.221,14.343,14.771
-0.059,0.951,0.671,-2.075,4.395,19.592
-0.039,0.882,0.648,0.671,-0.977,25.024
0.034,0.910,0.622,10.681,-0.061,34.119
0.125,0.952,0.586,22.278,2.686,38.757
0.203,0.952,0.544,29.175,3.418,35.400
0.234,0.951,0.510,34.119,0.854,30.762
0.228,0.953,0.483,37.170,-2.869,27.710
0.200,0.933,0.465,37.720,-6.653,26.978
0.143,0.863,0.495,38.330,-9.399,29.358
0.092,0.800,0.506,44.250,-10.315,38.696
0.098,0.769,0.486,53.711,-9.583,51.025
0.126,0.733,0.446,62.012,-11.963,58.472
0.141,0.678,0.419,65.308,-18.799,61.707
0.104,0.614,0.426,62.134,-26.611,60.974
0.062,0.564,0.469,56.763,-31.860,59.326
0.079,0.557,0.510,52.734,-29.297,58.289
0.106,0.569,0.544,49.072,-20.569,54.993
0.138,0.550,0.575,42.969,-10.132,49.438
0.146,0.519,0.619,37.170,-1.099,41.748
0.150,0.478,0.646,33.752,5.493,34.546
0.113,0.407,0.680,28.137,8.484,28.809
0.059,0.370,0.741,21.545,7.568,25.146
-0.020,0.301,0.820,18.005,5.737,22.278
-0.071,0.238,0.854,15.320,4.578,20.752
-0.104,0.216,0.873,16.663,2.808,20.508
-0.106,0.192,0.868,19.653,2.319,19.592
-0.080,0.183,0.855,20.447,3.845,16.296
-0.029,0.214,0.853,19.653,7.324,10.132
-0.007,0.214,0.854,14.465,12.573,1.404
-0.021,0.179,0.886,4.028,17.151,-7.751
-0.072,0.136,0.967,-6.165,21.484,-13.489
-0.132,0.086,1.065,-13.916,24.780,-13.733
-0.179,0.040,1.160,-18.005,24.414,-7.385
-0.181,0.036,1.193,-17.944,19.470,1.770
-0.188,0.040,1.189,-14.099,9.460,8.972
-0.196,0.026,1.145,-9.827,-1.282,12.451
-0.199,0.044,1.098,-5.371,-10.132,10.498
-0.207,0.113,1.072,-0.793,-13.672,6.897
-0.207,0.146,1.062,1.160,-10.376,3.235
-0.170,0.152,1.061,-0.610,-1.587,0.671
-0.142,0.181,1.081,-5.981,6.226,-0.366
-0.146,0.202,1.122,-12.268,7.385,-2.502
-0.162,0.217,1.176,-18.066,5.615,-4.456
-0.178,0.217,1.225,-20.935,3.174,-3.357
-0.185,0.222,1.254,-21.423,-1.160,0.854
-0.193,0.230,1.273,-17.700,-6.653,4.456
-0.186,0.242,1.271,-11.536,-12.390,5.127
-0.202,0.249,1.251,-1.892,-18.372,3.662
-0.219,0.266,1.198,8.972,-20.630,1.465
-0.210,0.311,1.131,18.860,-16.174,-1.160
-0.209,0.324,1.062,23.682,-8.728,-4.639
-0.220,0.309,1.015,22.644,-2.014,-8.301
-0.226,0.308,0.992,19.409,3.235,-10.193
-0.229,0.321,0.983,15.747,5.066,-8.667
-0.215,0.310,0.987,13.672,6.409,-7.935
-0.202,0.309,0.999,10.620,6.104,-5.615
-0.200,0.317,1.022,9.827,4.089,-2.502
-0.186,0.334,1.031,12.207,0.427,0.488
1.147,1.720,-1.507,46.448,-167.480,120.605
1.132,2.186,-1.489,0.854,-148.926,65.430
0.815,2.480,-1.193,-49.744,-105.469,-20.813
0.214,2.516,-0.809,-82.581,-58.594,-127.808
-0.439,2.476,-0.464,-92.285,-16.968,-202.271
-0.863,2.402,-0.151,-97.595,8.423,-209.412
-1.091,2.230,0.194,-107.666,2.991,-175.110
-1.205,2.039,0.643,-107.422,-17.761,-129.639
-1.159,1.843,0.994,-83.130,-20.203,-89.172
-0.957,1.547,1.116,-44.006,4.395,-57.922
-0.654,1.252,1.017,-1.709,31.616,-29.053
-0.272,0.955,0.806,31.860,39.429,4.089
0.216,0.658,0.680,48.157,19.653,35.706
0.605,0.482,0.568,42.908,-5.188,63.049
0.866,0.356,0.561,26.184,-11.353,82.397
1.004,0.229,0.573,10.315,-11.536,72.571
0.996,0.156,0.570,1.160,-8.850,49.866
0.847,0.187,0.542,-3.052,-8.911,30.334
0.607,0.261,0.539,-6.531,-13.611,15.442
0.387,0.333,0.550,-8.118,-19.165,0.549
0.196,0.432,0.579,-7.324,-18.555,-9.277
0.077,0.525,0.631,-5.676,-13.489,-15.747
-0.023,0.584,0.681,-2.991,-4.028,-16.357
-0.045,0.613,0.729,-2.686,3.784,-11.475
-0.035,0.652,0.756,-2.747,1.770,-6.775
0.010,0.602,0.778,-4.333,-3.296,-1.038
0.026,0.624,0.816,-5.493,-9.033,11.108
0.091,0.645,0.821,-3.601,-15.442,19.531
0.138,0.604,0.814,-1.892,-17.639,22.583
0.152,0.634,0.811,0.427,-19.714,23.254
0.132,0.657,0.804,2.075,-19.409,19.165
0.055,0.693,0.802,1.526,-17.517,15.198
-0.011,0.736,0.779,1.648,-13.977,12.268
-0.064,0.750,0.782,0.122,-12.024,9.216
-0.112,0.801,0.787,-1.648,-10.071,6.897
-0.148,0.875,0.799,-1.709,-6.287,6.165
-0.179,0.912,0.836,-1.526,-0.977,5.127
-0.177,0.956,0.844,2.014,3.479,7.690
-0.150,0.981,0.820,7.446,6.531,13.489
-0.117,0.974,0.782,12.390,6.470,19.104
-0.086,0.976,0.727,17.761,2.930,23.437
-0.042,0.991,0.657,22.522,-0.916,27.344
0.027,1.005,0.592,24.536,-3.296,30.701
0.081,0.983,0.530,24.597,-6.042,31.250
0.099,1.004,0.478,26.672,-10.498,30.640
0.079,1.000,0.426,28.137,-13.367,29.968
0.079,1.000,0.399,25.940,-14.832,30.396
0.100,0.986,0.391,22.766,-13.428,33.325
0.094,0.935,0.409,18.555,-12.207,36.011
0.041,0.891,0.461,17.883,-11.292,38.940
0.048,0.891,0.465,25.208,-7.751,45.105
0.082,0.904,0.456,35.400,-0.916,49.438
0.127,0.888,0.455,43.335,3.906,48.645
0.175,0.877,0.455,47.791,4.578,45.410
0.197,0.860,0.453,49.683,3.357,42.297
0.243,0.833,0.449,45.959,2.869,41.138
0.255,0.714,0.492,35.889,1.343,37.415
0.224,0.618,0.539,27.161,-5.554,32.043
0.134,0.539,0.590,20.203,-14.038,28.320
0.051,0.505,0.664,16.663,-16.846,26.917
-0.002,0.497,0.727,20.386,-11.414,27.649
-0.019,0.457,0.738,26.611,-3.296,27.710
-0.013,0.470,0.708,34.180,1.099,26.367
-0.045,0.447,0.688,40.405,0.305,22.339
-0.050,0.409,0.668,41.931,-2.136,19.226
-0.018,0.370,0.672,41.870,-3.906,18.005
-0.035,0.328,0.669,37.720,-5.615,15.137
-0.113,0.281,0.721,30.579,-5.188,8.911
-0.140,0.237,0.775,22.583,0.366,4.150
-0.160,0.225,0.838,14.526,5.615,3.052
-0.194,0.164,0.953,10.132,6.531,3.174
-0.184,0.095,0.980,8.606,4.944,5.371
-0.152,0.082,0.970,7.812,0.305,6.836
-0.194,0.011,0.981,10.437,-6.470,5.554
-0.221,-0.007,0.956,14.526,-10.681,4.700
-0.212,-0.093,0.920,15.930,-11.230,1.465
-0.202,-0.166,0.900,15.015,-9.644,0.793
-0.196,-0.210,0.895,11.536,-8.728,2.930
-0.187,-0.280,0.935,-2.136,-10.071,2.319
-0.209,-0.274,1.037,-20.996,-13.062,2.808
-0.239,-0.227,1.165,-33.813,-14.709,7.751
-0.231,-0.198,1.272,-43.701,-12.207,13.184
-0.230,-0.127,1.341,-48.218,-9.827,18.677
-0.207,-0.064,1.435,-45.227,-6.958,21.179
-0.187,0.021,1.473,-36.621,-5.615,20.630
-0.187,0.106,1.483,-25.146,-4.822,17.517
-0.181,0.175,1.458,-11.719,-4.456,13.062
-0.182,0.273,1.407,-1.953,-7.080,10.498
-0.190,0.323,1.344,7.263,-9.705,5.859
-0.210,0.353,1.276,15.564,-8.545,-0.977
-0.233,0.358,1.211,21.484,-4.272,-4.700
-0.229,0.371,1.141,24.719,1.770,-6.042
-0.235,0.382,1.079,24.963,6.592,-6.226
-0.234,0.419,1.023,21.973,9.583,-5.371
-0.239,0.442,0.990,18.066,12.085,-5.066
-0.228,0.425,0.964,12.390,15.320,-5.249
-0.208,0.424,0.956,5.005,15.503,-3.174
-0.203,0.429,0.979,1.831,14.160,-1.465
-0.188,0.428,1.001,2.869,12.146,-1.221
-0.163,0.432,0.988,5.798,5.554,1.831
0.989,1.789,-1.031,41.626,-122.070,88.867
0.976,2.135,-1.156,17.700,-115.784,44.800
0.792,2.479,-1.083,-24.109,-87.708,-22.156
0.411,2.551,-0.767,-77.759,-54.138,-114.624
-0.141,2.443,-0.390,-120.667,-28.687,-203.430
-0.703,2.214,-0.060,-138.428,-15.869,-245.483
-1.234,2.022,0.208,-133.911,-20.386,-228.821
-1.540,1.784,0.447,-115.479,-36.621,-175.293
-1.672,1.562,0.656,-89.905,-46.692,-110.779
-1.508,1.470,0.760,-59.509,-58.472,-59.631
-1.260,1.283,0.845,-28.442,-34.058,-1.648
-0.778,1.152,0.866,-0.793,6.287,44.312
-0.213,0.959,0.834,20.935,36.865,68.970
0.217,0.819,0.781,37.842,51.880,77.393
0.510,0.648,0.685,47.913,52.307,70.007
0.741,0.467,0.553,50.232,39.063,60.791
0.865,0.265,0.449,43.152,18.799,59.814
0.886,0.169,0.387,32.715,-11.414,59.937
0.853,0.150,0.379,20.935,-37.781,54.626
0.732,0.202,0.425,6.042,-51.697,43.823
0.528,0.263,0.503,-8.545,-52.490,24.841
0.291,0.359,0.592,-18.005,-41.870,2.075
0.071,0.477,0.660,-20.691,-27.161,-14.709
-0.101,0.562,0.707,-20.447,-16.174,-21.362
-0.199,0.629,0.758,-19.287,-11.047,-18.005
-0.223,0.673,0.804,-17.578,-10.498,-7.996
-0.227,0.685,0.836,-13.489,-13.916,2.258
-0.185,0.679,0.842,-8.057,-17.761,12.024
-0.140,0.662,0.830,-3.296,-21.362,19.897
-0.088,0.677,0.814,0.366,-26.550,22.705
-0.036,0.630,0.806,1.953,-23.499,25.146
-0.021,0.643,0.787,3.662,-19.836,27.771
-0.006,0.631,0.764,2.625,-16.724,24.719
-0.029,0.628,0.771,-0.671,-14.343,20.081
-0.054,0.654,0.783,-3.113,-13.123,15.259
-0.084,0.680,0.805,-4.761,-12.817,11.841
-0.102,0.712,0.828,-4.639,-11.963,9.521
-0.114,0.754,0.850,-1.831,-10.437,7.996
-0.126,0.792,0.870,3.601,-7.751,7.751
-0.132,0.818,0.862,10.437,-4.517,10.620
-0.109,0.824,0.826,17.700,-0.977,15.259
-0.099,0.793,0.777,22.400,-1.343,19.592
-0.104,0.751,0.723,24.658,-5.798,23.865
-0.104,0.741,0.668,26.123,-10.193,28.809
-0.094,0.734,0.625,24.231,-13.184,33.630
-0.069,0.734,0.599,20.996,-13.794,36.255
-0.055,0.774,0.590,18.799,-11.597,35.400
-0.049,0.816,0.582,17.273,-7.141,31.311
-0.024,0.839,0.577,16.907,-1.038,26.123
0.002,0.819,0.567,18.372,4.089,20.386
0.004,0.841,0.510,22.583,5.188,16.602
-0.001,0.861,0.460,26.001,3.723,14.221
-0.016,0.834,0.419,23.254,1.709,11.963
-0.013,0.820,0.393,19.409,-1.648,14.526
-0.015,0.817,0.392,15.747,-4.272,18.494
-0.013,0.749,0.437,9.827,-5.554,19.775
0.010,0.715,0.480,8.301,-3.052,22.034
0.061,0.798,0.482,14.709,4.456,24.292
0.109,0.865,0.486,20.142,12.878,21.851
0.149,0.864,0.493,16.724,19.409,15.625
0.138,0.807,0.526,13.672,21.851,9.399
0.102,0.733,0.550,15.747,20.813,7.751
0.084,0.742,0.544,19.287,18.860,13.062
0.049,0.690,0.560,20.081,13.916,17.029
-0.010,0.617,0.597,16.296,5.798,18.860
-0.082,0.591,0.632,13.123,-0.366,21.362
-0.103,0.579,0.662,12.634,-0.366,23.071
-0.074,0.595,0.699,15.991,6.287,24.841
-0.016,0.628,0.718,21.240,15.015,23.376
0.038,0.639,0.724,23.865,21.545,18.921
0.104,0.609,0.742,24.109,25.024,13.977
0.099,0.617,0.757,21.545,21.912,9.705
0.046,0.536,0.801,12.024,15.869,0.427
-0.066,0.456,0.869,6.531,10.803,-5.127
-0.147,0.390,0.942,7.385,8.484,-5.981
-0.176,0.322,0.982,12.451,8.667,-5.249
-0.224,0.265,0.992,18.250,7.568,-5.493
-0.231,0.267,0.959,26.001,7.996,-8.240
-0.242,0.263,0.929,32.776,9.155,-13.977
-0.252,0.296,0.887,36.926,10.925,-19.897
-0.248,0.306,0.867,37.842,14.099,-23.376
-0.237,0.315,0.885,31.494,17.151,-22.644
-0.230,0.239,0.941,20.020,17.456,-16.663
-0.215,0.140,1.017,5.493,13.245,-7.812
-0.219,0.087,1.110,-5.798,2.869,1.831
-0.196,0.087,1.182,-11.658,-7.385,11.902
-0.171,0.089,1.234,-11.475,-14.526,18.921
-0.164,0.103,1.264,-5.188,-19.348,21.973
-0.164,0.131,1.253,5.493,-19.226,21.729
-0.158,0.123,1.243,17.578,-14.160,19.592
-0.123,0.129,1.167,27.405,-8.301,16.418
-0.116,0.148,1.111,31.433,-5.859,12.329
-0.142,0.151,1.076,31.311,-6.714,6.470
-0.152,0.153,1.056,27.771,-5.737,2.441
-0.139,0.159,1.071,21.423,-1.709,2.258
-0.119,0.147,1.089,11.963,-1.465,5.493
-0.109,0.172,1.123,3.357,-5.981,10.010
-0.120,0.201,1.150,-0.916,-12.695,13.428
-0.092,0.218,1.160,0.916,-10.193,13.062
-0.096,0.248,1.165,4.761,-7.202,12.390
0.931,2.307,-1.099,83.984,-156.799,115.540
0.893,2.646,-1.009,53.650,-138.306,61.401
0.447,2.768,-0.733,3.601,-109.680,-28.564
-0.116,2.622,-0.440,-33.081,-80.933,-119.141
-0.617,2.441,-0.223,-52.063,-56.885,-157.349
-0.980,2.250,-0.008,-65.308,-54.688,-143.311
-1.235,2.014,0.258,-78.064,-78.247,-105.713
-1.408,1.819,0.544,-80.566,-105.957,-63.049
-1.325,1.680,0.782,-63.782,-104.614,-20.386
-1.023,1.602,0.903,-29.907,-65.308,19.653
-0.579,1.530,0.876,4.150,-12.939,43.945
-0.153,1.433,0.784,29.053,22.949,54.199
0.180,1.359,0.715,40.405,35.278,59.631
0.359,1.285,0.662,42.114,34.302,62.805
0.478,1.236,0.586,42.419,13.916,53.223
0.564,1.136,0.465,41.321,9.521,56.030
0.547,1.125,0.350,40.344,17.822,65.613
0.569,1.088,0.255,34.851,17.395,57.495
0.579,1.045,0.213,25.146,14.038,46.570
0.544,0.960,0.221,13.062,12.024,38.269
0.540,0.891,0.252,2.747,6.287,28.564
0.512,0.778,0.356,-3.540,-0.977,16.907
0.408,0.677,0.471,-6.592,-1.526,11.841
0.263,0.586,0.604,3.540,10.803,17.700
0.199,0.568,0.662,17.151,11.597,18.982
0.189,0.521,0.655,32.410,23.743,25.696
0.158,0.480,0.640,40.222,28.015,35.461
0.151,0.439,0.623,44.128,13.123,32.959
0.149,0.378,0.639,43.091,-1.892,30.334
0.201,0.312,0.683,35.095,-12.146,33.020
0.248,0.268,0.719,24.902,-24.780,31.982
0.199,0.190,0.776,17.822,-37.842,22.644
0.110,0.126,0.822,13.123,-41.443,12.512
0.016,0.079,0.877,12.817,-33.020,5.188
-0.064,0.057,0.923,14.954,-17.761,1.526
-0.114,0.026,0.950,16.724,-3.540,-3.113
-0.112,0.032,0.951,21.484,5.798,-7.874
-0.127,0.042,0.939,25.024,8.118,-13.062
-0.140,0.022,0.926,23.437,5.310,-18.250
-0.157,0.011,0.941,17.822,0.793,-20.996
-0.156,0.019,0.960,11.902,-3.540,-19.897
-0.153,0.045,1.009,7.019,-3.601,-11.536
-0.180,0.075,1.062,5.371,-5.432,-5.127
-0.160,0.061,1.089,2.380,-5.066,4.883
-0.183,0.080,1.110,1.038,-3.662,18.066
-0.177,0.136,1.104,4.028,-4.700,21.484
-0.125,0.163,1.088,7.507,-5.798,20.386
-0.121,0.153,1.063,6.104,-9.521,15.991
-0.156,0.166,1.056,8.240,-14.099,8.179
-0.154,0.191,1.033,13.550,-14.221,2.747
-0.100,0.214,0.990,14.709,-11.292,1.160
-0.072,0.224,0.974,10.254,-10.437,0.061
-0.088,0.235,0.998,4.639,-12.939,-3.113
-0.137,0.226,1.047,0.610,-13.977,-5.981
-0.157,0.205,1.097,-0.122,-12.573,-5.127
-0.157,0.209,1.103,2.930,-13.184,-0.854
-0.153,0.244,1.094,8.118,-15.503,3.052
-0.150,0.225,1.080,12.695,-18.799,4.761
-0.130,0.247,1.041,18.982,-18.005,4.456
-0.113,0.282,0.988,23.621,-16.968,1.221
-0.094,0.288,0.951,22.400,-15.686,-5.188
-0.102,0.284,0.929,19.287,-12.146,-8.850
-0.098,0.296,0.927,14.526,-8.240,-12.512
-0.100,0.298,0.946,9.338,-7.080,-14.709
-0.093,0.342,0.958,4.944,-7.935,-14.221
-0.096,0.333,0.980,-2.014,-9.277,-11.169
-0.130,0.314,1.016,-6.958,-10.498,-6.958
-0.148,0.330,1.045,-7.324,-13.550,-2.075
-0.161,0.339,1.065,-3.662,-17.151,3.052
-0.152,0.338,1.060,1.465,-19.958,7.812
-0.159,0.333,1.042,7.446,-23.315,11.902
-0.164,0.342,1.013,14.038,-26.123,13.611
-0.153,0.357,0.977,20.447,-26.062,13.611
-0.104,0.384,0.911,24.414,-24.414,12.268
-0.125,0.436,0.864,24.231,-23.193,8.118
-0.151,0.360,0.855,16.479,-18.250,-1.221
-0.170,0.341,0.845,10.315,-9.827,-6.653
-0.163,0.346,0.842,6.592,-1.953,-7.874
-0.160,0.360,0.852,1.221,1.282,-8.423
-0.177,0.373,0.885,-3.113,0.427,-7.874
-0.192,0.367,0.913,-5.493,-0.549,-5.920
-0.188,0.371,0.918,-3.906,-1.099,-2.625
-0.178,0.365,0.905,-0.916,-2.258,1.282
-0.150,0.371,0.880,1.404,-4.028,4.700
-0.119,0.425,0.851,2.808,-5.859,6.409
-0.099,0.433,0.856,0.305,-6.531,5.493
-0.097,0.407,0.880,-3.845,-4.211,4.272
-0.095,0.407,0.895,-4.639,-1.465,3.357
-0.097,0.419,0.908,-3.113,0.122,1.282
-0.101,0.426,0.903,-1.770,0.977,-0.671
-0.117,0.418,0.904,-1.953,0.793,-1.648
-0.131,0.390,0.904,-1.770,0.061,-1.160
-0.141,0.385,0.901,-0.793,-1.648,1.038
-0.142,0.381,0.892,0.366,-3.845,3.723
-0.134,0.386,0.877,1.343,-6.104,5.737
-0.118,0.381,0.858,0.854,-7.690,6.775
-0.118,0.366,0.861,-1.648,-8.301,6.531
-0.118,0.363,0.865,-2.502,-6.897,5.127
-0.111,0.385,0.873,-2.380,-5.249,3.296
-0.109,0.407,0.886,-2.014,-4.089,0.854
0.911,2.759,-0.795,259.033,-53.955,13.062
0.881,3.176,-1.048,191.345,-53.040,-19.470
0.546,3.215,-1.029,65.735,-56.824,-81.177
0.020,2.949,-0.581,-61.157,-77.026,-155.090
-0.557,2.663,-0.053,-134.155,-103.149,-197.266
-1.114,2.397,0.349,-159.119,-128.540,-205.383
-1.519,2.064,0.667,-154.236,-140.137,-183.228
-1.737,1.779,0.899,-133.667,-133.179,-133.484
-1.656,1.580,0.999,-103.577,-108.093,-76.904
-1.263,1.409,0.991,-68.787,-65.308,-19.836
-0.746,1.332,0.941,-37.781,-13.550,29.907
-0.157,1.296,0.864,-13.062,22.644,43.579
0.331,1.228,0.749,-4.150,54.260,47.607
0.553,1.200,0.609,-5.798,83.130,50.537
0.674,1.153,0.461,-13.733,83.496,35.645
0.687,1.081,0.358,-24.109,64.453,23.071
0.618,1.046,0.310,-33.691,42.175,22.522
0.526,0.996,0.318,-38.757,21.118,26.917
0.453,0.945,0.335,-40.405,4.822,37.659
0.435,0.831,0.366,-37.720,2.380,50.842
0.389,0.767,0.413,-33.386,0.183,60.913
0.364,0.698,0.499,-24.231,1.953,66.162
0.372,0.661,0.559,-12.390,8.240,66.650
0.377,0.600,0.565,-1.953,15.259,68.420
0.367,0.556,0.567,4.944,15.686,69.641
0.347,0.523,0.582,8.240,11.841,67.322
0.311,0.457,0.620,8.484,6.775,63.171
0.260,0.428,0.638,6.104,0.977,58.533
0.207,0.359,0.645,2.258,-4.517,53.284
0.132,0.263,0.667,-2.136,-9.399,49.561
0.052,0.211,0.724,-4.761,-12.939,46.082
-0.008,0.224,0.808,-2.319,-11.353,43.091
-0.047,0.180,0.877,2.930,-3.174,38.147
-0.076,0.118,0.907,7.019,8.240,31.921
-0.078,0.142,0.935,13.367,14.832,23.254
-0.081,0.151,0.974,19.043,15.503,12.085
-0.127,0.095,1.000,22.400,16.052,4.333
-0.166,0.048,1.000,23.499,14.954,1.770
-0.171,0.067,0.997,25.391,9.766,2.991
-0.200,0.062,0.989,24.597,5.737,12.451
-0.226,0.040,0.994,22.461,2.869,20.508
-0.229,0.063,1.003,22.217,0.854,23.376
-0.241,0.098,1.033,25.085,-0.061,21.179
-0.208,0.077,1.039,25.879,0.000,18.005
-0.187,0.047,1.040,20.325,-2.014,17.151
-0.172,0.082,1.058,11.902,-6.775,16.968
-0.177,0.082,1.097,3.235,-11.597,15.015
-0.184,0.064,1.139,-2.808,-14.160,13.794
-0.166,0.109,1.157,-3.723,-15.564,14.954
-0.162,0.176,1.176,-2.014,-17.273,14.465
-0.173,0.210,1.192,0.549,-18.433,11.108
-0.191,0.227,1.195,4.700,-17.395,7.751
-0.216,0.215,1.182,8.362,-13.733,5.676
-0.236,0.224,1.154,11.597,-10.132,4.395
-0.250,0.222,1.137,13.733,-7.446,3.113
-0.251,0.209,1.123,14.343,-5.798,0.916
-0.263,0.194,1.109,13.550,-7.385,0.916
-0.249,0.207,1.079,13.794,-9.216,2.991
-0.220,0.276,1.057,13.184,-10.864,5.249
-0.212,0.306,1.066,10.986,-11.841,4.639
-0.229,0.320,1.083,9.949,-12.451,1.770
-0.238,0.325,1.087,12.573,-11.230,-0.183
-0.224,0.347,1.069,16.235,-9.033,-0.061
-0.201,0.381,1.050,18.250,-7.935,1.404
-0.189,0.354,1.030,17.517,-8.606,2.563
-0.205,0.327,1.017,18.677,-10.315,2.991
-0.208,0.327,0.997,21.423,-11.963,4.639
-0.206,0.322,0.956,24.963,-13.306,7.019
-0.177,0.314,0.908,27.893,-12.695,7.263
-0.169,0.296,0.876,25.635,-14.282,7.507
-0.175,0.266,0.849,22.095,-15.808,6.897
-0.163,0.259,0.817,19.348,-15.381,6.775
-0.144,0.274,0.790,16.296,-13.550,6.775
-0.120,0.278,0.777,10.620,-11.414,5.249
-0.127,0.268,0.788,3.479,-9.888,2.136
-0.133,0.274,0.800,-1.343,-7.996,-0.366
-0.136,0.319,0.812,-3.418,-6.104,-1.709
-0.142,0.366,0.813,-4.211,-4.272,-4.211
-0.147,0.363,0.818,-7.812,-2.563,-7.385
-0.168,0.346,0.842,-10.620,-1.465,-11.108
-0.189,0.339,0.858,-10.986,-0.183,-13.367
-0.200,0.330,0.869,-10.132,1.099,-13.123
-0.197,0.352,0.873,-8.240,1.709,-11.230
-0.182,0.386,0.856,-8.057,1.343,-8.911
-0.182,0.362,0.861,-11.902,-0.183,-7.507
-0.188,0.355,0.874,-14.709,-1.465,-6.653
-0.182,0.364,0.889,-15.137,-2.930,-5.981
-0.181,0.372,0.900,-14.587,-3.113,-4.639
-0.176,0.404,0.906,-12.146,-2.930,-3.479
-0.175,0.407,0.918,-10.437,-2.014,-3.540
-0.183,0.398,0.934,-8.728,-1.526,-3.418
-0.193,0.399,0.940,-5.249,-2.258,-2.930
-0.193,0.417,0.934,-1.160,-3.845,-1.770
-0.184,0.442,0.911,1.465,-5.798,-0.916
-0.185,0.425,0.900,0.427,-7.324,-0.427
-0.194,0.405,0.903,-0.305,-7.629,-0.549
-0.200,0.411,0.904,0.122,-7.263,-1.221
-0.205,0.396,0.903,0.671,-5.981,-1.953
-0.200,0.403,0.885,1.587,-4.333,-2.747
-0.203,0.385,0.875,0.671,-3.601,-3.845
0.722,2.759,-0.791,96.375,-16.296,15.686
0.388,3.026,-0.706,29.907,-19.653,-41.382
-0.160,2.937,-0.447,-57.617,-29.785,-86.609
-0.736,2.683,-0.063,-131.531,-53.040,-95.886
-1.226,2.361,0.343,-171.265,-99.609,-78.491
-1.674,2.051,0.728,-171.692,-153.625,-60.913
-1.985,1.817,0.953,-131.897,-168.762,-49.072
-1.850,1.736,0.910,-66.101,-137.695,-35.706
-1.305,1.613,0.677,1.099,-64.697,0.061
-0.658,1.552,0.412,48.401,23.804,50.720
-0.070,1.446,0.239,63.538,72.754,70.557
0.396,1.266,0.164,62.195,81.299,70.679
0.699,1.105,0.088,52.124,70.679,72.815
0.840,0.960,0.026,34.973,46.814,71.899
0.825,0.825,0.022,17.517,18.982,62.500
0.738,0.733,0.048,2.747,0.427,47.241
0.582,0.724,0.094,-5.615,-2.930,32.776
0.440,0.737,0.144,-8.423,7.507,19.348
0.349,0.713,0.189,-6.287,23.804,8.423
0.289,0.703,0.227,-2.563,36.194,-2.014
0.187,0.713,0.304,0.854,39.978,-11.841
0.083,0.632,0.447,2.502,40.466,-22.156
-0.001,0.561,0.585,6.470,41.443,-21.301
-0.008,0.554,0.656,13.306,42.480,-10.681
0.006,0.534,0.683,17.883,38.818,0.183
0.021,0.490,0.702,17.334,28.931,9.460
0.020,0.430,0.724,13.306,15.991,16.968
0.021,0.390,0.760,7.568,2.563,22.522
0.007,0.370,0.794,5.554,-8.179,24.414
-0.009,0.333,0.806,7.385,-14.526,22.827
-0.046,0.278,0.812,7.751,-17.090,21.362
-0.078,0.283,0.853,6.042,-14.587,19.897
-0.052,0.266,0.928,5.737,-8.057,17.578
-0.044,0.233,0.964,5.310,-3.601,13.550
-0.060,0.210,0.998,7.263,-2.563,4.761
-0.112,0.218,1.012,13.489,-2.075,-3.845
-0.158,0.263,1.029,21.790,1.831,-10.132
-0.169,0.241,1.028,25.818,11.475,-13.672
-0.180,0.220,1.028,24.475,20.264,-12.146
-0.189,0.234,1.017,23.560,23.315,-7.202
-0.207,0.215,1.014,22.949,24.414,0.854
-0.173,0.175,1.021,17.212,19.653,8.789
-0.100,0.159,1.025,9.644,12.817,18.982
-0.028,0.202,1.024,1.770,0.488,24.658
-0.023,0.207,1.043,-4.333,-12.207,25.085
-0.014,0.218,1.076,-7.935,-18.250,20.752
-0.002,0.238,1.107,-9.460,-19.409,9.949
-0.038,0.237,1.141,-3.784,-16.541,0.671
-0.091,0.293,1.149,5.981,-8.972,-4.883
-0.113,0.284,1.133,13.367,-2.930,-10.559
-0.135,0.252,1.104,16.418,-0.671,-12.268
-0.163,0.255,1.055,20.020,-2.563,-8.789
-0.172,0.285,1.001,22.095,-7.202,-5.920
-0.189,0.291,0.962,22.278,-10.864,-3.967
-0.176,0.289,0.932,20.142,-10.559,-1.953
-0.132,0.290,0.914,15.564,-9.338,-1.038
-0.106,0.277,0.924,8.789,-10.864,1.587
-0.110,0.323,0.951,5.737,-13.123,4.883
-0.078,0.317,0.971,0.122,-15.320,2.747
-0.090,0.320,0.996,-3.723,-17.334,4.089
-0.113,0.332,1.024,-2.319,-17.212,6.348
-0.135,0.325,1.033,1.831,-15.747,6.165
-0.147,0.343,1.020,8.118,-13.672,6.470
-0.158,0.334,0.995,13.855,-12.085,5.493
-0.153,0.332,0.952,17.700,-11.292,3.479
-0.159,0.355,0.923,19.775,-12.085,0.244
-0.157,0.392,0.905,19.470,-12.512,-3.357
-0.158,0.393,0.889,15.137,-11.353,-5.676
-0.157,0.384,0.889,8.911,-9.338,-6.531
-0.151,0.375,0.892,3.296,-7.324,-6.470
-0.149,0.401,0.902,-1.404,-7.385,-5.371
-0.165,0.425,0.937,-4.456,-9.155,-3.174
-0.181,0.422,0.958,-3.967,-9.949,-1.343
-0.194,0.418,0.963,0.000,-10.193,0.488
-0.195,0.415,0.945,5.554,-10.925,2.991
-0.173,0.408,0.898,9.521,-12.817,5.737
-0.148,0.406,0.863,9.216,-16.113,7.996
-0.150,0.427,0.858,7.690,-20.020,7.751
-0.164,0.420,0.864,7.446,-20.996,4.333
-0.170,0.410,0.857,8.057,-18.311,1.709
-0.149,0.402,0.821,9.644,-13.062,-0.977
-0.145,0.379,0.783,6.775,-9.949,-2.136
-0.156,0.358,0.770,0.610,-9.399,-2.075
-0.164,0.379,0.778,-4.883,-8.911,-1.343
-0.168,0.425,0.803,-8.240,-7.935,-0.854
-0.177,0.441,0.829,-10.376,-5.859,-2.014
-0.174,0.459,0.841,-11.108,-3.235,-3.723
-0.170,0.480,0.857,-10.864,-0.610,-5.066
-0.182,0.500,0.888,-10.254,1.831,-6.348
-0.189,0.505,0.912,-8.057,4.333,-7.080
-0.180,0.513,0.912,-4.517,6.470,-6.775
-0.173,0.517,0.904,-2.319,6.775,-6.348
-0.171,0.507,0.902,-1.160,5.859,-6.042
-0.172,0.496,0.907,-0.732,4.944,-5.005
-0.173,0.493,0.903,-0.244,3.357,-3.784
-0.171,0.481,0.892,-0.488,1.465,-2.136
-0.172,0.461,0.887,-1.526,-0.793,-0.122
-0.170,0.457,0.881,-1.404,-2.686,2.075
-0.165,0.460,0.879,-1.648,-3.662,4.028
-0.147,0.457,0.880,-2.197,-3.906,5.188
1.037,2.375,-1.401,66.772,-52.917,18.616
0.730,2.731,-1.205,-50.598,-63.721,-29.785
-0.063,2.888,-0.511,-147.705,-95.154,-92.041
-0.812,2.890,0.068,-166.321,-94.299,-112.915
-1.149,2.725,0.277,-146.545,-65.308,-96.985
-1.441,2.474,0.478,-127.930,-64.453,-70.923
-1.518,2.213,0.756,-101.501,-87.219,-37.781
-1.245,1.943,0.819,-58.716,-88.623,8.423
-0.676,1.764,0.548,-8.545,-66.345,46.814
-0.196,1.506,0.294,28.503,-44.434,58.289
0.216,1.301,0.076,35.889,-41.321,46.753
0.480,1.060,-0.009,29.297,-12.451,60.791
0.731,0.823,0.025,11.353,7.507,74.341
0.820,0.714,0.087,-0.732,9.094,70.557
0.771,0.703,0.135,-5.554,8.179,57.556
0.662,0.699,0.175,-6.531,16.418,39.368
0.510,0.674,0.220,-4.700,29.175,21.729
0.334,0.739,0.242,3.296,38.208,9.888
0.246,0.805,0.243,13.733,46.936,1.465
0.145,0.824,0.243,18.799,48.889,0.183
0.055,0.803,0.245,20.203,42.175,3.418
0.002,0.759,0.276,21.057,29.236,8.789
-0.036,0.720,0.325,18.311,12.939,17.639
-0.086,0.683,0.412,11.841,0.610,24.536
-0.129,0.653,0.507,8.728,-3.296,29.541
-0.106,0.609,0.594,12.329,0.061,35.278
-0.054,0.570,0.644,20.935,4.211,40.955
-0.005,0.553,0.662,30.701,3.235,43.396
0.012,0.534,0.710,36.438,0.488,41.626
0.015,0.496,0.739,41.626,-3.174,39.124
0.020,0.423,0.758,42.847,-6.348,37.048
-0.005,0.368,0.760,40.222,-10.315,34.912
-0.062,0.297,0.780,36.194,-14.954,28.503
-0.153,0.227,0.849,29.114,-16.724,22.705
-0.232,0.173,0.940,22.949,-13.184,20.203
-0.228,0.118,1.013,20.630,-5.737,18.921
-0.228,0.113,1.054,21.240,-1.587,16.846
-0.219,0.146,1.074,25.879,-0.610,10.925
-0.222,0.146,1.089,29.785,-0.732,4.578
-0.224,0.123,1.098,31.006,-1.953,1.587
-0.178,0.148,1.095,32.959,-2.014,2.991
-0.133,0.181,1.072,33.875,-2.991,4.944
-0.140,0.159,1.063,29.175,-7.996,2.319
-0.190,0.139,1.081,20.996,-11.597,4.761
-0.231,0.127,1.102,14.404,-12.329,6.836
-0.257,0.113,1.109,9.888,-11.658,8.789
-0.289,0.109,1.109,8.606,-12.756,7.935
-0.296,0.123,1.089,8.667,-13.672,4.883
-0.281,0.171,1.072,8.911,-13.245,2.502
-0.293,0.197,1.069,7.507,-10.376,-0.977
-0.298,0.207,1.076,5.066,-6.531,-6.531
-0.290,0.239,1.083,4.578,-1.892,-10.925
-0.273,0.273,1.093,5.310,3.418,-12.634
-0.250,0.275,1.100,4.761,7.324,-12.634
-0.217,0.287,1.100,4.150,8.423,-9.705
-0.188,0.303,1.099,3.174,5.676,-5.798
-0.144,0.300,1.083,2.014,1.892,-4.517
-0.127,0.304,1.074,-1.160,-3.357,-1.709
-0.131,0.303,1.058,-2.563,-8.606,-0.305
-0.122,0.306,1.038,-2.075,-10.803,-0.793
-0.127,0.330,1.023,-0.732,-10.437,-2.380
-0.143,0.340,1.014,0.061,-8.850,-5.066
-0.167,0.357,1.006,2.319,-5.798,-7.690
-0.175,0.379,0.985,6.348,-2.075,-9.277
-0.189,0.410,0.965,9.644,1.160,-9.949
-0.199,0.417,0.950,11.719,4.150,-9.460
-0.196,0.419,0.926,13.367,5.493,-7.080
-0.188,0.428,0.902,14.648,3.540,-4.639
-0.181,0.426,0.882,14.404,-0.977,-1.892
-0.165,0.422,0.859,11.658,-6.042,1.221
-0.169,0.418,0.844,8.301,-10.071,3.784
-0.167,0.408,0.822,5.798,-11.169,5.493
-0.172,0.375,0.814,3.052,-10.376,5.737
-0.165,0.371,0.808,0.427,-9.888,5.066
-0.163,0.403,0.808,1.404,-7.874,4.150
-0.166,0.389,0.816,-0.977,-5.798,2.930
-0.170,0.388,0.824,-1.343,-4.395,2.319
-0.159,0.414,0.831,-0.732,-3.662,2.075
-0.163,0.440,0.859,-1.526,-4.028,1.892
-0.161,0.449,0.876,-1.343,-3.967,2.258
-0.156,0.449,0.885,0.427,-3.906,2.686
-0.154,0.457,0.884,2.136,-4.761,2.991
-0.159,0.473,0.888,3.418,-5.188,2.991
-0.164,0.454,0.895,3.479,-4.517,3.235
-0.162,0.441,0.889,3.784,-4.150,4.028
-0.158,0.439,0.873,4.211,-4.578,4.761
-0.152,0.437,0.851,3.052,-5.676,5.432
-0.156,0.429,0.845,0.488,-6.165,4.578
-0.167,0.419,0.849,-2.075,-4.883,2.319
-0.173,0.406,0.855,-3.784,-3.235,0.183
-0.171,0.412,0.860,-3.723,-2.075,-0.854
-0.164,0.425,0.870,-3.479,-2.075,-1.953
-0.177,0.420,0.879,-2.625,-2.014,-3.784
-0.179,0.428,0.875,-0.122,-0.916,-4.944
-0.170,0.441,0.864,2.319,0.854,-5.737
-0.176,0.451,0.860,2.869,1.892,-6.348
-0.179,0.451,0.859,2.441,1.831,-6.409
-0.183,0.446,0.853,1.648,1.221,-6.165
-0.182,0.439,0.841,0.183,-0.183,-5.005
-0.179,0.435,0.829,-2.014,-2.075,-3.296
0.162,2.254,-0.900,-32.959,-74.036,-8.484
-0.148,2.416,-0.661,-65.430,-62.866,-33.203
-0.340,2.437,-0.323,-85.022,-51.575,-46.326
-0.643,2.406,0.006,-91.187,-49.744,-52.124
-0.893,2.293,0.297,-83.374,-57.922,-54.443
-1.004,2.171,0.472,-68.115,-63.354,-41.504
-0.990,1.943,0.631,-44.250,-56.335,-14.587
-0.712,1.818,0.575,-20.081,-57.190,7.935
-0.394,1.651,0.480,5.920,-32.166,46.387
-0.114,1.447,0.381,19.653,-12.695,74.768
0.146,1.273,0.270,25.574,-9.827,82.520
0.308,1.155,0.204,22.461,-11.414,86.121
0.382,1.077,0.202,13.245,-10.071,83.740
0.372,1.003,0.234,3.906,-8.423,72.205
0.322,0.964,0.273,-2.380,-5.554,54.138
0.246,0.956,0.327,-5.127,4.211,42.908
0.211,0.932,0.377,-6.592,15.747,37.231
0.203,0.945,0.416,-7.507,23.865,34.729
0.217,0.895,0.456,-12.451,24.353,31.860
0.173,0.832,0.508,-16.602,16.846,28.992
0.111,0.759,0.542,-19.958,5.371,27.100
0.027,0.667,0.609,-20.508,-3.296,31.006
-0.019,0.599,0.617,-16.479,-7.324,36.743
-0.081,0.557,0.638,-11.597,-7.812,40.161
-0.151,0.484,0.684,-4.944,-4.639,41.931
-0.150,0.392,0.693,2.869,2.625,43.884
-0.113,0.333,0.688,9.583,8.789,44.556
-0.072,0.330,0.705,11.841,9.399,43.152
-0.030,0.314,0.764,8.362,6.836,38.086
-0.024,0.268,0.811,3.296,4.150,30.273
-0.036,0.258,0.878,2.075,3.601,20.447
-0.071,0.285,0.919,4.333,8.789,10.132
-0.097,0.279,0.981,7.568,17.578,1.587
-0.076,0.246,0.981,11.597,25.940,-2.563
-0.110,0.231,0.981,13.123,24.597,-6.042
-0.193,0.206,0.990,15.198,18.250,-10.559
-0.274,0.186,1.003,16.235,13.855,-10.803
-0.335,0.159,1.018,17.090,12.634,-5.493
-0.331,0.154,1.013,18.555,12.512,0.610
-0.307,0.169,1.018,18.921,13.977,10.559
-0.251,0.183,1.037,17.090,14.099,16.418
-0.158,0.199,1.058,11.780,10.986,19.226
-0.115,0.225,1.088,5.981,4.822,17.761
-0.096,0.216,1.105,1.953,0.305,14.099
-0.093,0.237,1.149,3.540,-2.014,12.390
-0.088,0.288,1.161,4.089,-3.174,6.653
-0.115,0.244,1.171,1.038,-2.808,1.160
-0.159,0.201,1.177,0.671,-0.977,-1.587
-0.190,0.211,1.156,7.263,0.000,-1.282
-0.213,0.222,1.129,12.756,0.488,0.183
-0.241,0.247,1.084,16.418,-0.488,3.418
-0.244,0.258,1.039,17.212,-0.305,7.568
-0.221,0.254,1.011,14.893,0.732,10.254
-0.179,0.263,1.000,9.827,-0.916,11.414
-0.166,0.292,1.002,5.249,-6.714,11.047
-0.160,0.297,1.008,4.089,-12.207,6.592
-0.157,0.299,1.018,3.723,-13.916,3.662
-0.174,0.317,1.040,5.554,-12.024,1.587
-0.177,0.329,1.044,10.559,-8.301,0.000
-0.174,0.348,1.029,16.541,-5.310,-0.732
-0.185,0.350,1.006,21.606,-5.493,-1.099
-0.187,0.366,0.974,26.306,-5.676,-1.099
-0.189,0.388,0.945,29.236,-4.578,-1.587
-0.187,0.400,0.905,29.602,-2.991,-3.052
-0.184,0.395,0.865,26.611,-2.136,-4.578
-0.176,0.386,0.835,21.362,-0.916,-5.615
-0.170,0.387,0.824,14.832,0.854,-5.310
-0.155,0.384,0.835,7.446,2.625,-3.967
-0.135,0.386,0.850,0.244,2.258,-1.465
-0.121,0.389,0.866,-5.310,-1.404,1.831
-0.120,0.408,0.887,-7.935,-5.920,5.005
-0.136,0.434,0.925,-7.690,-8.545,7.080
-0.140,0.449,0.946,-3.296,-7.996,8.423
-0.125,0.457,0.936,4.395,-6.104,9.033
-0.127,0.476,0.900,11.597,-5.920,8.057
-0.124,0.510,0.865,17.700,-5.737,2.930
-0.151,0.507,0.844,19.165,-4.883,-1.831
-0.174,0.483,0.834,18.311,-1.831,-4.395
-0.179,0.459,0.830,16.724,1.831,-4.883
-0.176,0.440,0.823,14.282,3.235,-3.662
-0.177,0.436,0.828,10.498,1.221,-1.099
-0.187,0.425,0.846,6.165,-2.502,1.465
-0.189,0.408,0.861,3.967,-5.005,4.333
-0.182,0.398,0.864,4.517,-5.981,6.836
-0.170,0.390,0.851,5.920,-6.104,8.484
-0.146,0.413,0.821,6.287,-6.470,9.277
-0.147,0.422,0.818,4.456,-6.592,7.996
-0.160,0.416,0.824,2.808,-5.310,4.089
-0.171,0.411,0.827,2.747,-2.991,0.549
-0.168,0.404,0.826,2.808,-0.244,-0.916
-0.162,0.415,0.815,2.380,0.427,-1.648
-0.174,0.432,0.825,-0.183,-0.732,-1.404
-0.188,0.431,0.847,-1.831,-1.770,0.061
-0.190,0.429,0.857,-1.343,-1.648,1.099
-0.191,0.431,0.864,0.183,-1.587,1.587
-0.180,0.431,0.865,1.892,-1.648,1.892
-0.163,0.436,0.853,2.563,-1.587,1.831
-0.164,0.424,0.861,1.038,-1.831,1.099
-0.167,0.410,0.869,0.183,-0.916,0.122
-0.167,0.400,0.873,-0.183,0.305,-0.427
0.772,2.142,-0.664,48.645,-131.165,52.002
0.420,2.519,-0.633,8.118,-134.338,-1.343
-0.005,2.698,-0.415,-34.729,-115.051,-60.974
-0.481,2.656,-0.213,-63.782,-83.862,-102.234
-0.938,2.444,-0.095,-78.003,-64.941,-117.493
-1.287,2.200,-0.003,-81.787,-69.519,-105.896
-1.447,1.994,0.117,-77.209,-86.487,-69.092
-1.300,1.830,0.216,-63.965,-92.773,-25.696
-0.957,1.751,0.268,-44.189,-78.369,12.695
-0.515,1.601,0.339,-21.729,-52.307,31.921
-0.009,1.465,0.338,-8.850,-25.330,32.654
0.299,1.313,0.307,2.869,20.874,46.082
0.503,1.196,0.257,3.235,40.283,39.246
0.552,1.049,0.219,0.610,37.537,18.250
0.476,0.940,0.180,-1.831,28.931,1.953
0.318,0.896,0.184,-3.174,21.362,-3.235
0.161,0.816,0.273,-5.432,16.846,-3.174
0.096,0.758,0.335,-2.991,17.029,5.005
0.096,0.722,0.372,2.319,24.292,20.935
0.135,0.686,0.403,3.906,23.987,35.339
0.137,0.625,0.447,1.343,12.878,41.260
0.081,0.562,0.517,-2.563,-1.709,42.358
0.020,0.562,0.583,-5.066,-9.460,46.448
0.009,0.548,0.643,-3.601,-7.446,50.964
0.022,0.513,0.672,0.854,-0.366,52.490
0.032,0.500,0.671,6.226,6.653,51.697
0.014,0.477,0.677,10.010,10.620,49.316
0.002,0.442,0.692,11.841,11.658,45.532
-0.019,0.435,0.704,13.611,9.399,41.565
-0.040,0.432,0.724,15.747,6.226,38.513
-0.055,0.419,0.726,15.808,4.028,36.011
-0.062,0.432,0.732,14.282,2.869,34.241
-0.100,0.465,0.773,14.282,3.479,30.090
-0.117,0.432,0.813,16.907,6.653,24.719
-0.098,0.414,0.822,20.325,9.644,20.264
-0.074,0.408,0.835,23.437,9.827,17.883
-0.046,0.367,0.838,22.278,7.446,15.747
-0.055,0.328,0.845,18.921,5.371,13.245
-0.077,0.329,0.865,15.137,3.906,11.780
-0.122,0.295,0.902,13.062,8.240,13.428
-0.124,0.267,0.942,11.780,12.634,13.611
-0.104,0.258,0.957,14.343,15.259,16.846
-0.089,0.243,0.966,16.052,13.611,18.921
-0.101,0.202,0.977,15.564,8.423,20.935
-0.070,0.223,0.996,14.160,3.052,24.414
-0.024,0.245,1.015,13.916,-2.136,25.879
-0.006,0.202,1.039,11.841,-7.812,24.475
0.006,0.175,1.058,9.155,-13.306,22.766
0.004,0.172,1.080,8.057,-18.250,21.545
-0.009,0.156,1.094,7.751,-21.790,20.813
-0.030,0.137,1.101,8.362,-24.353,20.142
-0.077,0.127,1.108,10.315,-27.100,18.005
-0.115,0.136,1.092,13.367,-28.015,15.564
-0.153,0.149,1.071,16.052,-25.757,13.550
-0.188,0.166,1.049,17.395,-21.667,11.047
-0.199,0.192,1.036,16.174,-17.090,8.728
-0.201,0.209,1.037,12.756,-12.207,5.127
-0.187,0.215,1.050,8.118,-8.301,2.502
-0.163,0.237,1.071,2.991,-7.446,2.136
-0.136,0.264,1.098,-2.075,-9.033,2.930
-0.132,0.290,1.123,-5.554,-11.292,3.540
-0.127,0.303,1.136,-6.104,-11.169,3.845
-0.124,0.316,1.137,-4.150,-9.949,4.639
-0.117,0.333,1.123,-1.038,-9.033,5.737
-0.114,0.355,1.096,2.258,-8.972,6.226
-0.116,0.352,1.062,4.578,-9.521,5.432
-0.129,0.345,1.028,5.920,-10.010,3.967
-0.143,0.353,0.992,7.690,-10.132,1.892
-0.148,0.374,0.951,9.460,-9.094,-0.488
-0.144,0.395,0.906,8.972,-6.836,-3.479
-0.142,0.393,0.873,5.493,-4.456,-6.836
-0.161,0.396,0.867,0.854,-3.235,-10.803
-0.182,0.412,0.866,-1.709,-1.648,-13.855
-0.195,0.434,0.867,-1.526,0.977,-14.893
-0.209,0.446,0.880,0.061,2.625,-14.832
-0.208,0.489,0.888,3.540,1.770,-14.343
-0.214,0.472,0.883,6.104,0.305,-11.658
-0.224,0.455,0.862,8.667,-2.319,-8.179
-0.213,0.448,0.833,11.353,-4.395,-5.127
-0.178,0.495,0.793,13.306,-6.226,-1.526
-0.159,0.527,0.759,10.681,-7.629,-0.366
-0.191,0.488,0.767,3.174,-7.874,-2.930
-0.203,0.470,0.785,-2.380,-6.226,-5.005
-0.200,0.463,0.803,-5.615,-3.235,-4.883
-0.206,0.447,0.820,-7.446,-2.808,-3.967
-0.206,0.433,0.818,-7.446,-3.906,-2.441
-0.194,0.427,0.800,-7.751,-5.005,0.366
-0.168,0.440,0.809,-8.667,-5.798,2.808
-0.160,0.447,0.824,-8.789,-6.775,2.502
-0.162,0.432,0.840,-7.996,-6.287,-0.122
-0.157,0.426,0.851,-5.432,-4.150,-2.075
-0.150,0.413,0.845,-1.892,-1.953,-3.601
-0.127,0.411,0.818,0.610,-1.099,-4.822
-0.122,0.439,0.791,-1.038,-2.991,-3.723
-0.116,0.444,0.800,-6.653,-4.761,-2.930
-0.127,0.458,0.825,-11.353,-5.188,-3.906
-0.140,0.471,0.856,-13.245,-4.822,-5.554
-0.152,0.483,0.877,-13.123,-3.296,-7.019
-0.161,0.504,0.890,-10.498,-1.160,-8.484
-0.178,0.513,0.910,-7.324,0.366,-9.705
-0.654,2.714,-0.410,-53.955,63.721,-132.019
-0.752,2.962,0.006,-71.289,19.836,-71.411
-0.851,2.967,0.445,-82.703,-37.659,-29.480
-0.927,2.803,0.766,-75.134,-74.463,-12.817
-0.975,2.439,0.822,-49.927,-72.449,-7.019
-0.849,2.125,0.651,-13.184,-51.147,5.005
-0.555,1.880,0.462,12.634,-41.870,28.076
-0.285,1.629,0.414,23.254,-48.645,50.171
0.031,1.436,0.326,23.804,-69.031,51.514
0.268,1.168,0.243,24.658,-52.307,68.420
0.452,1.000,0.156,22.400,-33.386,78.674
0.483,0.927,0.107,19.043,-24.963,64.758
0.424,0.959,0.090,13.977,-16.541,41.809
0.361,0.931,0.098,8.545,-1.892,23.804
0.252,0.895,0.172,3.296,3.418,14.771
0.122,0.854,0.277,5.249,-0.244,17.639
0.152,0.842,0.298,15.442,-1.038,30.029
0.196,0.794,0.278,21.606,-5.371,46.631
0.192,0.721,0.261,19.531,-23.193,55.908
0.132,0.631,0.296,14.526,-39.368,61.340
0.101,0.536,0.349,9.460,-46.021,64.575
0.073,0.458,0.378,6.165,-45.837,65.063
0.026,0.375,0.409,3.357,-41.748,63.293
-0.011,0.326,0.462,1.099,-32.959,58.960
-0.043,0.282,0.511,-0.427,-22.095,53.955
-0.064,0.271,0.572,-1.648,-11.414,49.500
-0.068,0.273,0.656,-4.639,-2.930,45.715
-0.081,0.233,0.759,-6.470,0.366,40.283
-0.104,0.222,0.835,-4.089,1.892,34.058
-0.118,0.245,0.910,2.075,5.676,27.649
-0.143,0.303,0.983,10.559,11.292,23.499
-0.124,0.289,1.010,18.433,17.273,20.813
-0.109,0.248,1.028,27.527,19.226,15.686
-0.091,0.215,1.016,35.461,18.311,10.803
-0.104,0.207,1.001,36.560,14.038,7.629
-0.133,0.194,1.013,29.602,8.667,6.653
-0.179,0.175,1.058,19.348,3.845,7.324
-0.223,0.178,1.108,13.672,-1.343,5.066
-0.258,0.188,1.142,14.221,-2.686,7.874
-0.250,0.192,1.153,19.470,-1.831,9.216
-0.202,0.197,1.132,26.001,-0.854,10.254
-0.185,0.217,1.077,30.273,-3.784,7.751
-0.193,0.193,1.059,29.114,-7.141,1.709
-0.201,0.179,1.038,26.428,-8.240,-1.282
-0.210,0.167,1.037,21.973,-9.338,-1.160
-0.219,0.165,1.049,16.174,-11.108,0.122
-0.234,0.156,1.056,10.742,-13.489,1.831
-0.261,0.138,1.075,6.348,-16.113,3.540
-0.268,0.144,1.077,5.371,-16.724,5.432
-0.261,0.176,1.075,5.371,-15.320,7.690
-0.235,0.211,1.098,6.165,-13.916,8.606
-0.216,0.262,1.094,8.423,-13.794,7.446
-0.238,0.311,1.093,13.916,-13.367,0.793
-0.226,0.303,1.067,16.418,-9.705,-12.268
-0.264,0.325,1.044,20.569,-5.188,-17.883
-0.276,0.338,1.035,23.743,0.061,-22.034
-0.291,0.373,1.025,25.940,3.662,-23.743
-0.311,0.369,1.010,26.978,4.089,-20.203
-0.338,0.349,0.990,26.367,3.235,-14.160
-0.344,0.335,0.969,26.978,0.732,-8.362
-0.315,0.322,0.952,26.550,-3.357,-2.319
-0.273,0.316,0.924,23.621,-7.874,3.723
-0.256,0.289,0.911,18.005,-13.428,7.324
-0.232,0.264,0.904,12.573,-18.127,9.827
-0.203,0.275,0.897,8.179,-19.592,12.024
-0.192,0.306,0.901,4.944,-18.555,12.451
-0.195,0.315,0.911,2.502,-15.015,10.010
-0.194,0.323,0.915,2.197,-9.644,7.263
-0.194,0.345,0.911,4.211,-4.700,4.456
-0.208,0.382,0.915,7.568,-1.953,1.648
-0.221,0.397,0.908,11.353,1.465,-0.732
-0.233,0.382,0.885,14.587,5.615,-2.625
-0.229,0.372,0.856,16.968,8.423,-4.456
-0.215,0.382,0.829,16.846,8.362,-3.418
-0.200,0.385,0.806,12.939,5.188,-2.075
-0.218,0.360,0.804,6.592,-0.488,-2.075
-0.230,0.348,0.812,1.953,-4.150,-0.793
-0.218,0.356,0.808,-0.854,-5.981,1.404
-0.211,0.392,0.820,-3.662,-7.446,3.052
-0.226,0.386,0.841,-5.859,-7.080,2.441
-0.238,0.380,0.854,-4.944,-4.333,1.282
-0.237,0.381,0.854,-2.319,-1.099,1.038
-0.234,0.389,0.857,-0.366,1.465,1.465
-0.238,0.387,0.864,1.099,2.625,1.953
-0.234,0.381,0.860,2.747,2.502,2.563
-0.223,0.376,0.843,3.357,1.465,3.784
-0.192,0.375,0.824,1.648,-0.854,5.005
-0.192,0.378,0.826,-2.747,-3.723,4.089
-0.196,0.384,0.839,-6.775,-5.310,1.648
-0.198,0.399,0.852,-9.094,-4.761,-1.160
-0.205,0.408,0.859,-10.010,-3.296,-4.395
-0.233,0.422,0.883,-10.620,-1.404,-6.470
-0.256,0.422,0.908,-9.277,0.671,-6.836
-0.264,0.420,0.920,-4.883,3.357,-5.981
-0.260,0.423,0.912,0.549,4.150,-5.188
-0.256,0.422,0.897,4.333,3.601,-4.272
-0.249,0.412,0.886,5.371,3.357,-3.052
-0.242,0.402,0.884,4.761,3.662,-2.075
-0.234,0.389,0.887,3.540,3.784,-1.587
-0.200,0.383,0.883,2.441,4.028,-1.465
0.191,2.829,-0.346,-41.504,-52.429,-24.170
-0.339,2.775,-0.086,-65.735,-108.398,-43.030
-0.781,2.513,0.086,-71.716,-143.433,-65.002
-1.064,2.231,0.128,-61.035,-134.705,-50.354
-1.176,1.966,0.094,-42.908,-106.873,-18.188
-1.076,1.772,0.083,-27.039,-89.294,-0.122
-0.742,1.671,0.082,-16.296,-66.772,19.348
-0.400,1.513,0.153,-4.028,-16.907,57.556
0.002,1.369,0.167,4.395,9.216,68.909
0.319,1.240,0.151,10.681,19.287,65.491
0.466,1.105,0.136,10.986,25.269,60.364
0.513,1.013,0.142,7.751,24.292,52.002
0.504,0.975,0.193,2.991,19.470,41.260
0.423,0.963,0.306,0.000,18.066,31.494
0.293,0.923,0.434,3.174,20.081,29.175
0.215,0.901,0.489,14.404,22.400,34.790
0.211,0.903,0.476,24.231,21.790,42.358
0.183,0.840,0.472,27.466,11.658,48.035
0.141,0.788,0.479,25.879,-3.052,51.025
0.098,0.725,0.503,21.240,-13.245,52.429
0.059,0.615,0.548,15.381,-16.296,52.979
0.002,0.487,0.603,10.559,-14.160,52.185
-0.063,0.395,0.670,8.484,-9.705,51.514
-0.083,0.339,0.722,11.780,-2.197,51.514
-0.095,0.343,0.752,17.029,6.042,50.903
-0.080,0.320,0.759,20.874,12.573,48.645
-0.054,0.331,0.752,22.644,15.015,44.556
-0.028,0.340,0.765,20.996,13.306,37.964
-0.032,0.310,0.783,15.625,8.911,30.029
-0.046,0.264,0.808,7.996,2.380,22.339
-0.095,0.224,0.865,1.221,-4.944,15.808
-0.201,0.188,0.939,-1.892,-9.705,11.047
-0.269,0.136,1.001,0.854,-8.850,8.667
-0.297,0.085,1.009,7.141,-3.357,8.972
-0.299,0.086,0.996,13.000,1.221,8.057
-0.294,0.100,0.988,15.686,2.319,3.906
-0.268,0.108,0.984,12.878,1.282,-0.244
-0.226,0.156,0.999,7.080,0.793,-0.916
-0.184,0.206,1.018,0.488,0.000,0.305
-0.130,0.242,1.042,-8.789,-0.732,-0.183
-0.118,0.254,1.085,-17.822,-1.465,-0.793
-0.109,0.297,1.151,-26.367,-0.061,3.418
-0.096,0.302,1.210,-29.846,-0.061,3.845
-0.099,0.284,1.240,-27.405,-1.831,4.700
-0.134,0.302,1.246,-17.273,-5.432,4.822
-0.144,0.321,1.217,-5.188,-10.986,-1.526
-0.201,0.314,1.172,9.888,-14.648,-4.150
-0.224,0.285,1.098,22.339,-14.832,-4.395
-0.222,0.281,1.015,30.884,-13.977,-2.502
-0.217,0.293,0.953,34.912,-14.343,0.549
-0.184,0.298,0.905,33.142,-13.794,2.991
-0.134,0.331,0.884,27.405,-13.672,5.676
-0.125,0.383,0.898,19.714,-13.672,7.568
-0.121,0.372,0.937,12.146,-12.695,6.042
-0.132,0.418,0.979,9.155,-10.010,5.005
-0.124,0.413,1.015,7.690,-7.874,3.845
-0.136,0.426,1.028,10.315,-7.629,5.249
-0.137,0.431,1.020,16.418,-8.179,5.188
-0.146,0.440,0.995,21.545,-9.521,4.700
-0.167,0.436,0.967,25.208,-10.315,4.639
-0.179,0.422,0.928,27.039,-9.766,4.089
-0.184,0.410,0.885,25.574,-9.155,4.761
-0.187,0.402,0.857,21.240,-8.911,6.104
-0.193,0.398,0.845,14.465,-8.850,7.202
-0.202,0.390,0.846,7.202,-7.507,8.484
-0.196,0.387,0.853,1.465,-5.188,9.399
-0.178,0.398,0.865,-2.136,-3.296,10.071
-0.178,0.430,0.897,-3.784,-2.502,9.460
-0.179,0.452,0.919,-1.953,-0.427,7.996
-0.178,0.468,0.925,2.441,2.563,6.409
-0.173,0.480,0.916,8.606,4.272,5.066
-0.172,0.508,0.898,13.977,3.723,3.479
-0.189,0.502,0.880,17.578,2.319,0.732
-0.199,0.490,0.865,19.592,1.526,-0.183
-0.197,0.479,0.836,21.362,1.160,-1.465
-0.181,0.474,0.800,20.447,0.244,-0.732
-0.191,0.455,0.790,15.442,-2.502,2.258
-0.200,0.432,0.789,9.583,-4.700,4.211
-0.201,0.415,0.792,5.493,-5.737,6.348
-0.194,0.402,0.797,2.625,-6.042,8.728
-0.191,0.432,0.819,0.854,-6.653,10.010
-0.176,0.438,0.835,0.427,-5.981,9.521
-0.181,0.423,0.849,1.099,-3.296,7.385
-0.188,0.410,0.849,4.333,-0.977,4.700
-0.177,0.406,0.833,7.202,1.221,3.967
-0.161,0.441,0.814,7.935,2.502,3.967
-0.149,0.459,0.809,4.944,2.197,2.930
-0.161,0.444,0.817,-0.305,1.526,0.916
-0.170,0.437,0.834,-3.845,1.953,-0.854
-0.168,0.428,0.848,-5.920,2.563,-1.038
-0.167,0.429,0.860,-6.897,1.770,-0.793
-0.172,0.456,0.877,-6.592,-0.183,0.488
-0.171,0.471,0.894,-4.883,-1.343,2.319
-0.169,0.458,0.899,-1.587,-1.038,3.296
-0.176,0.452,0.890,2.686,-1.221,2.319
-0.182,0.447,0.876,6.653,-0.488,0.916
-0.187,0.445,0.859,8.972,0.671,0.183
-0.174,0.457,0.833,9.155,0.977,0.061
-0.178,0.441,0.833,5.798,0.000,-0.305
-0.185,0.434,0.839,2.930,-1.160,-0.977
1.002,1.619,-1.415,54.993,-84.900,-67.505
0.627,1.889,-1.419,-26.428,-43.701,-97.534
0.096,2.156,-1.222,-82.764,-15.320,-99.121
-0.051,2.383,-1.073,-99.243,-4.700,-64.026
-0.014,2.534,-0.822,-115.051,-32.104,-25.330
-0.576,2.465,-0.356,-139.771,-103.149,-33.386
-0.834,2.286,0.135,-137.756,-148.804,-49.622
-0.852,2.141,0.442,-107.544,-122.803,-35.217
-0.719,1.980,0.554,-62.256,-57.678,-22.156
-0.512,1.803,0.587,-24.963,-0.122,-16.907
-0.313,1.640,0.586,-1.526,20.691,-13.855
-0.057,1.423,0.545,8.667,20.447,10.254
0.070,1.257,0.483,14.404,17.517,50.476
0.236,1.144,0.402,13.367,-1.160,68.481
0.310,1.066,0.344,9.583,-16.846,73.364
0.315,0.986,0.314,1.221,-19.409,75.439
0.266,1.010,0.323,-2.441,-14.160,76.111
0.253,0.995,0.359,-3.662,-12.024,66.162
0.227,0.970,0.393,-1.831,-10.559,55.908
0.142,0.952,0.464,2.441,-8.362,49.438
0.066,0.932,0.492,9.521,-1.038,51.819
0.042,0.904,0.513,19.348,5.981,56.519
0.014,0.829,0.497,26.184,-0.122,60.547
-0.023,0.740,0.473,27.893,-9.521,61.035
-0.077,0.664,0.480,23.682,-16.357,63.721
-0.083,0.586,0.513,16.479,-17.639,71.472
-0.101,0.564,0.559,11.536,-20.874,70.313
-0.101,0.541,0.624,10.315,-18.250,63.354
-0.128,0.473,0.690,12.451,-10.132,57.251
-0.137,0.466,0.712,18.738,-2.319,51.270
-0.132,0.460,0.724,26.428,5.188,47.058
-0.137,0.447,0.733,31.250,12.207,43.396
-0.137,0.384,0.728,34.302,15.442,38.513
-0.174,0.332,0.750,32.898,13.306,34.363
-0.224,0.297,0.780,30.640,9.888,31.677
-0.240,0.259,0.807,27.771,8.301,31.189
-0.216,0.204,0.823,24.109,8.057,31.494
-0.210,0.180,0.836,18.433,7.385,30.273
-0.244,0.178,0.899,14.343,8.301,24.719
-0.256,0.165,0.953,12.329,12.695,17.090
-0.245,0.175,0.991,14.221,21.362,12.939
-0.226,0.159,1.023,15.991,30.029,12.390
-0.192,0.141,1.053,18.250,34.058,13.000
-0.118,0.159,1.047,19.653,31.494,11.169
-0.086,0.159,1.051,17.456,27.344,13.855
-0.070,0.186,1.059,14.465,18.799,11.963
-0.073,0.208,1.076,11.597,11.658,9.277
-0.083,0.190,1.104,7.202,7.690,7.019
-0.086,0.169,1.128,4.028,3.967,5.981
-0.100,0.184,1.134,4.028,-1.099,6.592
-0.126,0.197,1.130,6.714,-4.761,7.751
-0.144,0.202,1.115,11.963,-7.751,7.935
-0.146,0.231,1.077,18.982,-9.705,7.263
-0.153,0.252,1.021,24.109,-10.620,5.249
-0.178,0.251,0.975,25.635,-10.498,2.075
-0.200,0.247,0.936,24.292,-9.338,-1.099
-0.214,0.271,0.930,21.118,-7.935,-2.319
-0.213,0.292,0.942,17.761,-6.775,-2.380
-0.200,0.301,0.949,15.442,-5.432,-4.211
-0.174,0.280,0.970,12.085,-4.517,-3.174
-0.144,0.343,0.976,10.376,-5.493,0.549
-0.150,0.395,0.990,10.498,-7.812,-1.221
-0.167,0.327,1.009,6.409,-8.545,-6.531
-0.194,0.322,1.000,8.728,-7.324,-5.859
-0.193,0.339,0.984,13.306,-6.165,-4.761
-0.192,0.343,0.970,14.648,-6.348,-4.578
-0.215,0.346,0.952,16.052,-6.958,-4.456
-0.223,0.331,0.933,16.479,-6.775,-4.028
-0.217,0.343,0.906,16.479,-4.395,-1.953
-0.208,0.372,0.900,16.174,-2.563,0.244
-0.203,0.385,0.902,13.672,-1.709,1.953
-0.187,0.374,0.898,9.521,-1.587,4.761
-0.177,0.368,0.892,6.104,-2.502,8.118
-0.164,0.381,0.882,3.296,-5.188,11.108
-0.141,0.407,0.893,-0.061,-8.057,12.939
-0.127,0.431,0.917,-3.601,-9.888,13.123
-0.131,0.429,0.939,-4.578,-10.193,10.559
-0.148,0.414,0.938,-0.793,-8.606,6.348
-0.141,0.403,0.917,4.639,-5.371,1.404
-0.142,0.413,0.887,8.118,-4.150,-0.061
-0.143,0.464,0.871,8.667,-4.456,-0.549
-0.161,0.454,0.881,6.348,-4.700,-1.526
-0.179,0.447,0.883,5.310,-4.028,-2.258
-0.190,0.440,0.883,6.165,-3.052,-2.686
-0.199,0.427,0.875,6.531,-2.563,-2.197
-0.204,0.443,0.854,6.165,-3.052,-0.916
-0.204,0.455,0.835,3.784,-3.967,0.549
-0.212,0.434,0.845,-0.305,-3.967,1.343
-0.207,0.431,0.858,-2.441,-3.357,1.465
-0.190,0.441,0.865,-2.441,-2.319,0.366
-0.180,0.457,0.853,-2.319,-0.977,-1.648
-0.183,0.447,0.855,-3.174,0.366,-4.700
-0.189,0.434,0.865,-3.845,1.953,-7.141
-0.196,0.427,0.875,-2.991,3.113,-7.935
-0.201,0.426,0.879,-1.770,2.563,-7.080
-0.200,0.432,0.872,-0.183,0.916,-5.188
-0.203,0.419,0.863,0.488,-0.977,-2.869
-0.204,0.412,0.864,0.916,-2.441,-0.793
-0.195,0.414,0.869,1.221,-3.235,0.427
-0.197,0.415,0.870,1.587,-3.601,0.671
-0.024,2.518,-0.713,-24.109,-4.700,-60.730
-0.302,2.803,-0.386,-49.805,-9.216,-95.337
-0.578,2.910,-0.050,-64.819,-24.170,-108.826
-0.870,2.816,0.186,-63.721,-47.607,-102.905
-1.081,2.561,0.286,-53.101,-70.862,-78.247
-1.091,2.188,0.261,-35.217,-89.478,-40.771
-0.930,1.905,0.135,-12.512,-100.769,4.333
-0.690,1.648,0.036,10.132,-99.915,44.556
-0.271,1.484,-0.032,21.362,-98.389,60.242
0.094,1.281,-0.036,22.217,-65.735,73.669
0.357,1.074,0.020,14.099,-22.339,80.444
0.562,0.901,0.091,5.493,5.615,72.266
0.691,0.828,0.184,-2.502,20.447,58.289
0.664,0.812,0.260,-11.230,23.499,36.377
0.486,0.843,0.396,-18.188,19.897,11.841
0.266,0.819,0.562,-17.639,18.921,-2.930
0.166,0.778,0.647,-7.996,25.269,0.366
0.138,0.763,0.651,5.005,26.978,11.780
0.108,0.742,0.621,13.428,20.081,21.729
0.058,0.713,0.609,16.296,7.202,26.489
-0.018,0.668,0.584,14.771,-7.568,29.175
-0.060,0.647,0.570,10.681,-19.287,32.776
-0.122,0.601,0.570,4.761,-27.161,35.034
-0.181,0.548,0.590,-0.244,-30.518,36.926
-0.203,0.517,0.628,-1.343,-28.809,39.612
-0.205,0.474,0.670,0.610,-24.780,41.443
-0.208,0.419,0.675,5.432,-21.118,40.771
-0.208,0.403,0.701,10.864,-17.822,36.621
-0.191,0.391,0.706,16.785,-12.756,30.090
-0.174,0.348,0.745,20.203,-7.202,22.034
-0.165,0.347,0.754,22.583,-1.282,13.000
-0.171,0.352,0.755,23.621,4.395,3.052
-0.194,0.335,0.783,21.301,10.986,-6.470
-0.191,0.323,0.818,15.625,18.921,-13.062
-0.183,0.320,0.850,9.338,25.085,-16.785
-0.175,0.286,0.911,5.920,27.161,-19.287
-0.177,0.297,0.924,3.906,24.658,-19.531
-0.178,0.321,0.936,2.380,20.813,-19.409
-0.166,0.325,0.987,0.549,17.700,-18.188
-0.165,0.328,1.028,-1.648,14.526,-13.000
-0.155,0.312,1.069,0.000,11.230,-6.348
-0.155,0.273,1.102,4.211,6.104,-1.465
-0.175,0.252,1.098,9.949,-0.183,2.380
-0.192,0.231,1.076,16.479,-4.517,5.310
-0.208,0.215,1.038,22.644,-5.493,7.751
-0.213,0.209,1.002,26.062,-5.005,9.521
-0.206,0.211,0.983,25.024,-4.639,10.925
-0.193,0.256,0.992,21.484,-5.188,12.878
-0.173,0.275,1.024,17.029,-6.287,14.221
-0.157,0.287,1.060,12.878,-7.019,15.320
-0.133,0.324,1.095,11.169,-7.690,13.550
-0.136,0.340,1.124,10.803,-7.812,12.390
-0.133,0.339,1.153,12.268,-6.042,11.108
-0.159,0.352,1.155,14.221,-5.798,13.733
-0.171,0.358,1.131,22.644,-5.432,8.240
-0.182,0.370,1.090,31.433,-3.784,0.061
-0.209,0.373,1.039,37.231,-1.770,-4.150
-0.217,0.366,0.988,38.025,0.732,-6.287
-0.222,0.343,0.954,34.241,1.770,-6.104
-0.226,0.327,0.942,29.297,0.610,-4.272
-0.228,0.320,0.934,24.902,-1.587,-1.404
-0.206,0.311,0.921,22.583,-2.502,-1.709
-0.179,0.315,0.906,18.738,-3.052,0.305
-0.157,0.321,0.910,13.428,-4.272,3.357
-0.147,0.329,0.924,9.521,-4.761,4.211
-0.139,0.336,0.943,8.057,-4.639,3.723
-0.129,0.368,0.956,8.667,-5.432,3.723
-0.121,0.392,0.958,10.864,-6.653,3.601
-0.131,0.392,0.947,13.184,-8.545,1.526
-0.141,0.383,0.930,15.991,-9.827,-0.305
-0.139,0.386,0.908,17.944,-10.071,-0.122
-0.150,0.392,0.902,18.982,-10.193,1.221
-0.165,0.381,0.889,19.226,-9.338,1.160
-0.170,0.366,0.864,19.348,-7.263,0.610
-0.174,0.352,0.841,19.104,-5.249,0.793
-0.178,0.346,0.824,17.334,-4.272,0.671
-0.177,0.344,0.811,14.465,-4.150,0.488
-0.174,0.336,0.798,11.047,-4.272,0.061
-0.173,0.325,0.792,7.019,-4.761,-0.671
-0.161,0.332,0.798,3.418,-5.127,-0.671
-0.163,0.357,0.827,0.000,-6.104,-0.366
-0.181,0.373,0.856,-0.244,-6.409,-0.977
-0.164,0.382,0.860,2.075,-4.578,-3.296
-0.174,0.393,0.865,3.662,-4.456,-2.625
-0.181,0.408,0.877,4.639,-5.493,-1.099
-0.174,0.415,0.885,6.531,-5.310,0.183
-0.177,0.424,0.875,8.179,-6.042,0.549
-0.186,0.414,0.857,8.545,-6.653,-0.122
-0.188,0.398,0.839,7.324,-6.409,-0.854
-0.187,0.388,0.826,4.822,-6.226,-0.305
-0.182,0.419,0.828,1.526,-6.958,-0.793
-0.198,0.428,0.845,-1.465,-6.226,-3.601
-0.209,0.421,0.854,-3.723,-3.296,-7.202
-0.212,0.413,0.856,-4.639,-0.244,-9.766
-0.230,0.406,0.865,-5.432,1.831,-10.437
-0.247,0.386,0.880,-5.737,2.319,-8.667
-0.243,0.389,0.881,-4.272,1.648,-4.944
-0.238,0.401,0.887,-2.014,-0.671,-1.160
-0.236,0.389,0.888,-0.671,-3.052,1.282
-0.220,0.381,0.876,0.549,-4.883,3.052
0.232,2.565,-0.072,10.803,-44.861,-81.543
-0.123,2.590,0.004,-0.183,-3.479,-130.310
-0.500,2.546,0.085,-22.522,13.672,-149.719
-0.877,2.431,0.204,-49.561,0.854,-128.662
-1.155,2.137,0.359,-67.993,-25.879,-86.304
-1.124,1.810,0.452,-65.002,-55.664,-38.147
-0.775,1.646,0.427,-44.800,-73.975,7.263
-0.415,1.449,0.359,-18.433,-51.880,57.556
-0.008,1.266,0.320,-6.042,-26.245,80.017
0.272,1.026,0.299,-5.127,-12.268,76.050
